"date","time","group","subject","blockcode","blocknum","trialcode","trialnum","response","correct","latency","stimulusnumber1","stimulusitem1","expressions.da","expressions.db","expressions.d","expressions.percentcorrect"
"122116","13:16:05","14","14","targetincompatiblepractice","1","targetAright","2","23","1","2236","4","flower4.jpg","","","0","0"
"122116","13:16:05","14","14","targetincompatiblepractice","1","targetAright","3","23","1","549","5","flower5.jpg","","","0","0"
"122116","13:16:05","14","14","targetincompatiblepractice","1","targetBleft","4","18","1","467","1","insect1.jpg","","","0","0"
"122116","13:16:05","14","14","targetincompatiblepractice","1","targetBleft","5","18","1","565","5","insect5.jpg","","","0","0"
"122116","13:16:05","14","14","targetincompatiblepractice","1","targetBleft","6","18","1","491","2","insect2.jpg","","","0","0"
"122116","13:16:05","14","14","targetincompatiblepractice","1","targetAright","7","23","1","588","6","flower6.jpg","","","0","0"
"122116","13:16:05","14","14","targetincompatiblepractice","1","targetAright","8","23","1","473","3","flower3.jpg","","","0","0"
"122116","13:16:05","14","14","targetincompatiblepractice","1","targetBleft","9","18","1","555","3","insect3.jpg","","","0","0"
"122116","13:16:05","14","14","targetincompatiblepractice","1","targetAright","10","23","1","586","2","flower2.jpg","","","0","0"
"122116","13:16:05","14","14","targetincompatiblepractice","1","targetAright","11","23","1","455","1","flower1.jpg","","","0","0"
"122116","13:16:05","14","14","targetincompatiblepractice","1","targetAright","12","23","1","473","1","flower1.jpg","","","0","0"
"122116","13:16:05","14","14","targetincompatiblepractice","1","targetBleft","13","18","1","1235","6","insect6.jpg","","","0","0"
"122116","13:16:05","14","14","targetincompatiblepractice","1","targetAright","14","23","1","717","2","flower2.jpg","","","0","0"
"122116","13:16:05","14","14","targetincompatiblepractice","1","targetBleft","15","18","1","581","4","insect4.jpg","","","0","0"
"122116","13:16:05","14","14","targetincompatiblepractice","1","targetAright","16","23","1","539","5","flower5.jpg","","","0","0"
"122116","13:16:05","14","14","targetincompatiblepractice","1","targetBleft","17","18","1","666","6","insect6.jpg","","","0","0"
"122116","13:16:05","14","14","targetincompatiblepractice","1","targetAright","18","23","1","2508","4","flower4.jpg","","","0","0"
"122116","13:16:05","14","14","targetincompatiblepractice","1","targetBleft","19","18","1","531","3","insect3.jpg","","","0","0"
"122116","13:16:05","14","14","targetincompatiblepractice","1","targetBleft","20","18","1","626","2","insect2.jpg","","","0","0"
"122116","13:16:05","14","14","targetincompatiblepractice","1","targetBleft","21","18","1","430","4","insect4.jpg","","","0","0"
"122116","13:16:05","14","14","attributepractice","2","attributeB","2","23","1","1474","7","Failure","","","0","0"
"122116","13:16:05","14","14","attributepractice","2","attributeA","3","18","1","563","4","Love","","","0","0"
"122116","13:16:05","14","14","attributepractice","2","attributeB","4","23","1","873","8","Hurt","","","0","0"
"122116","13:16:05","14","14","attributepractice","2","attributeA","5","18","1","579","5","Glorious","","","0","0"
"122116","13:16:05","14","14","attributepractice","2","attributeB","6","23","1","592","6","Horrible","","","0","0"
"122116","13:16:05","14","14","attributepractice","2","attributeB","7","23","1","678","3","Awful","","","0","0"
"122116","13:16:05","14","14","attributepractice","2","attributeA","8","18","1","591","3","Laughter","","","0","0"
"122116","13:16:05","14","14","attributepractice","2","attributeA","9","18","1","972","6","Pleasure","","","0","0"
"122116","13:16:05","14","14","attributepractice","2","attributeB","10","23","1","666","1","Evil","","","0","0"
"122116","13:16:05","14","14","attributepractice","2","attributeA","11","18","1","3715","8","Wonderful","","","0","0"
"122116","13:16:05","14","14","attributepractice","2","attributeB","12","23","1","752","4","Nasty","","","0","0"
"122116","13:16:05","14","14","attributepractice","2","attributeB","13","23","1","558","5","Terrible","","","0","0"
"122116","13:16:05","14","14","attributepractice","2","attributeB","14","23","1","557","2","Agony","","","0","0"
"122116","13:16:05","14","14","attributepractice","2","attributeA","15","18","1","699","1","Joy","","","0","0"
"122116","13:16:05","14","14","attributepractice","2","attributeB","16","23","1","676","1","Evil","","","0","0"
"122116","13:16:05","14","14","attributepractice","2","attributeA","17","18","1","654","7","Peace","","","0","0"
"122116","13:16:05","14","14","attributepractice","2","attributeA","18","18","1","720","2","Happy","","","0","0"
"122116","13:16:05","14","14","attributepractice","2","attributeB","19","23","1","608","4","Nasty","","","0","0"
"122116","13:16:05","14","14","attributepractice","2","attributeA","20","18","1","1636","5","Glorious","","","0","0"
"122116","13:16:05","14","14","attributepractice","2","attributeA","21","18","1","678","1","Joy","","","0","0"
"122116","13:16:05","14","14","incompatibletest1","3","attributeA","2","18","0","2282","8","Wonderful","","","0","0"
"122116","13:16:05","14","14","incompatibletest1","3","targetBleft","3","18","1","4394","1","insect1.jpg","1.1950889376210618309","","0.5975444688105309154","50"
"122116","13:16:05","14","14","incompatibletest1","3","attributeA","4","18","1","1099","7","Peace","1.1252224754651576344","","0.5626112377325788172","66.6666666666666571928"
"122116","13:16:05","14","14","incompatibletest1","3","targetAright","5","23","1","619","3","flower3.jpg","1.0121978414420009784","","0.5060989207210004892","75"
"122116","13:16:05","14","14","incompatibletest1","3","attributeB","6","23","1","735","3","Awful","0.970910967050862328","","0.485455483525431164","80"
"122116","13:16:05","14","14","incompatibletest1","3","targetBleft","7","18","1","598","5","insect5.jpg","0.9305152475744229434","","0.4652576237872114717","83.3333333333333428072"
"122116","13:16:05","14","14","incompatibletest1","3","attributeA","8","18","1","707","3","Laughter","0.9174141890359663876","","0.4587070945179831938","85.7142857142857081953"
"122116","13:16:05","14","14","incompatibletest1","3","targetAright","9","23","1","619","6","flower6.jpg","0.9017323865833625218","","0.4508661932916812609","87.5"
"122116","13:16:05","14","14","incompatibletest1","3","attributeB","10","23","1","1215","7","Failure","0.940054254358751562","","0.470027127179375781","88.8888888888888857309"
"122116","13:16:05","14","14","incompatibletest1","3","targetAright","11","23","1","467","5","flower5.jpg","0.9154382679024837266","","0.4577191339512418633","90"
"122116","13:16:05","14","14","incompatibletest1","3","attributeA","12","18","1","693","4","Love","0.9158184757523627484","","0.4579092378761813742","90.9090909090909065071"
"122116","13:16:05","14","14","incompatibletest1","3","targetAright","13","23","1","590","2","flower2.jpg","0.9099756151894363709","","0.4549878075947181855","91.6666666666666571928"
"122116","13:16:05","14","14","incompatibletest1","3","attributeB","14","23","0","1291","6","Horrible","0.9470343379990171506","","0.4735171689995085753","84.6153846153846131983"
"122116","13:16:05","14","14","incompatibletest1","3","targetAright","15","23","1","938","1","flower1.jpg","0.9646447520186571811","","0.4823223760093285906","85.7142857142857081953"
"122116","13:16:05","14","14","incompatibletest1","3","attributeB","16","23","1","1009","2","Agony","0.9852870848635727485","","0.4926435424317863743","86.6666666666666714036"
"122116","13:16:05","14","14","incompatibletest1","3","targetBleft","17","18","1","741","4","insect4.jpg","0.9905860713245597804","","0.4952930356622798902","87.5"
"122116","13:16:05","14","14","incompatibletest1","3","attributeB","18","23","0","1284","5","Terrible","1.0203085545933239242","","0.5101542772966619621","82.352941176470579876"
"122116","13:16:05","14","14","incompatibletest1","3","targetBleft","19","18","1","1620","2","insect2.jpg","1.0549956879093171924","","0.5274978439546585962","83.3333333333333428072"
"122116","13:16:05","14","14","incompatibletest1","3","attributeA","20","18","1","815","6","Pleasure","1.0620903167412234502","","0.5310451583706117251","84.2105263157894654569"
"122116","13:16:05","14","14","incompatibletest1","3","targetBleft","21","18","1","851","6","insect6.jpg","1.0710640102276445251","","0.5355320051138222626","85"
"122116","13:16:05","14","14","incompatibletest2","5","attributeB","1","23","0","4931","8","Hurt","1.0710640102276445251","","0.5355320051138222626","80.9523809523809489974"
"122116","13:16:05","14","14","incompatibletest2","5","targetBleft","2","18","1","86","5","insect5.jpg","1.0710640102276445251","0.650226263891345746","0.8606451370594951911","81.8181818181818272251"
"122116","13:16:05","14","14","incompatibletest2","5","attributeB","3","23","1","6040","1","Evil","1.0710640102276445251","0.9478598912608648952","1.0094619507442548212","82.6086956521739068648"
"122116","13:16:05","14","14","incompatibletest2","5","targetBleft","4","18","1","1060","1","insect1.jpg","1.0710640102276445251","0.8945967481204381011","0.9828303791740413686","83.3333333333333428072"
"122116","13:16:05","14","14","incompatibletest2","5","attributeA","5","18","1","678","2","Happy","1.0710640102276445251","0.832110015017731186","0.9515870126226878556","84"
"122116","13:16:05","14","14","incompatibletest2","5","targetAright","6","23","1","560","3","flower3.jpg","1.0710640102276445251","0.7829859578267099884","0.9270249840271772568","84.6153846153846131983"
"122116","13:16:05","14","14","incompatibletest2","5","attributeB","7","23","1","638","4","Nasty","1.0710640102276445251","0.7543962044787437815","0.9127301073531941533","85.1851851851851904485"
"122116","13:16:05","14","14","incompatibletest2","5","targetBleft","8","18","1","609","3","insect3.jpg","1.0710640102276445251","0.7322847089412601873","0.9016743595844523007","85.7142857142857081953"
"122116","13:16:05","14","14","incompatibletest2","5","attributeB","9","23","1","1390","3","Awful","1.0710640102276445251","0.7568199390181135078","0.9139419746228789609","86.2068965517241281304"
"122116","13:16:05","14","14","incompatibletest2","5","targetAright","10","23","1","810","6","flower6.jpg","1.0710640102276445251","0.7522971399498710188","0.911680575088757772","86.6666666666666714036"
"122116","13:16:05","14","14","incompatibletest2","5","attributeB","11","23","1","2062","2","Agony","1.0710640102276445251","0.7990935683520071775","0.9350787892898257958","87.0967741935483843463"
"122116","13:16:05","14","14","incompatibletest2","5","targetAright","12","23","1","527","4","flower4.jpg","1.0710640102276445251","0.7809529397111989457","0.9260084749694217354","87.5"
"122116","13:16:05","14","14","incompatibletest2","5","attributeA","13","18","1","647","4","Love","1.0710640102276445251","0.7718973332885735728","0.9214806717581089934","87.8787878787878753428"
"122116","13:16:05","14","14","incompatibletest2","5","targetAright","14","23","1","866","5","flower5.jpg","1.0710640102276445251","0.7741952473345311558","0.922629628781087785","88.2352941176470579876"
"122116","13:16:05","14","14","incompatibletest2","5","attributeA","15","18","1","2220","1","Joy","1.0710640102276445251","0.8160863001224045732","0.9435751551750245492","88.5714285714285693984"
"122116","13:16:05","14","14","incompatibletest2","5","targetBleft","16","18","1","790","1","insect1.jpg","1.0710640102276445251","0.8144919411212017124","0.9427779756744231188","88.8888888888888857309"
"122116","13:16:05","14","14","incompatibletest2","5","attributeA","17","18","1","1803","6","Pleasure","1.0710640102276445251","0.8440932685226726351","0.9575786393751586356","89.18918918918919303"
"122116","13:16:05","14","14","incompatibletest2","5","targetAright","18","23","1","990","1","flower1.jpg","1.0710640102276445251","0.8497490858767859923","0.9604065480522152587","89.4736842105263150415"
"122116","13:16:05","14","14","incompatibletest2","5","attributeA","19","18","1","1171","5","Glorious","1.0710640102276445251","0.8612660957075252144","0.9661650529675849253","89.7435897435897516061"
"122116","13:16:05","14","14","incompatibletest2","5","targetBleft","20","18","1","2264","3","insect3.jpg","1.0710640102276445251","0.8941750950699699496","0.9826195526488072929","90"
"122116","13:16:05","14","14","incompatibletest2","5","attributeB","21","23","1","824","6","Horrible","1.0710640102276445251","0.8934496191369408757","0.9822568146822927559","90.2439024390243957896"
"122116","13:16:05","14","14","incompatibletest2","5","targetAright","22","23","1","1252","4","flower4.jpg","1.0710640102276445251","0.9056868928501905502","0.9883754515389175932","90.4761904761904816041"
"122116","13:16:05","14","14","incompatibletest2","5","attributeA","23","18","1","6862","8","Wonderful","1.0710640102276445251","0.8516131920889991047","0.9613386011583218149","90.6976744186046488494"
"122116","13:16:05","14","14","incompatibletest2","5","targetAright","24","23","1","753","6","flower6.jpg","1.0710640102276445251","0.8467630777949379794","0.9589135440112912523","90.9090909090909065071"
"122116","13:16:05","14","14","incompatibletest2","5","attributeA","25","18","1","911","2","Happy","1.0710640102276445251","0.8464453878612774318","0.9587546990444609785","91.1111111111111142691"
"122116","13:16:05","14","14","incompatibletest2","5","targetBleft","26","18","1","687","2","insect2.jpg","1.0710640102276445251","0.8410993773025985387","0.9560816937651215319","91.3043478260869534324"
"122116","13:16:05","14","14","incompatibletest2","5","attributeA","27","18","1","824","3","Laughter","1.0710640102276445251","0.8396250530957206637","0.9553445316616826499","91.4893617021276526202"
"122116","13:16:05","14","14","incompatibletest2","5","targetBleft","28","18","1","636","5","insect5.jpg","1.0710640102276445251","0.8341378196478312912","0.9526009149377379082","91.6666666666666571928"
"122116","13:16:05","14","14","incompatibletest2","5","attributeA","29","18","1","511","7","Peace","1.0710640102276445251","0.8262130354345685879","0.948638522831106501","91.8367346938775597209"
"122116","13:16:05","14","14","incompatibletest2","5","targetAright","30","23","1","583","3","flower3.jpg","1.0710640102276445251","0.8206511593778382796","0.9458575848027414024","92"
"122116","13:16:05","14","14","incompatibletest2","5","attributeB","31","23","1","540","5","Terrible","1.0710640102276445251","0.814617391027401605","0.9428407006275230096","92.1568627450980386584"
"122116","13:16:05","14","14","incompatibletest2","5","targetBleft","32","18","1","579","6","insect6.jpg","1.0710640102276445251","0.8099589676115237502","0.9405114889195841377","92.3076923076923065992"
"122116","13:16:05","14","14","incompatibletest2","5","attributeB","33","23","1","913","8","Hurt","1.0710640102276445251","0.8124592220720433522","0.9417616161498438832","92.4528301886792434061"
"122116","13:16:05","14","14","incompatibletest2","5","targetBleft","34","18","1","617","4","insect4.jpg","1.0710640102276445251","0.8092331110706019182","0.9401485606491232216","92.5925925925925952242"
"122116","13:16:05","14","14","incompatibletest2","5","attributeB","35","23","1","717","7","Failure","1.0710640102276445251","0.8083256765925570519","0.9396948434101007885","92.7272727272727195214"
"122116","13:16:05","14","14","incompatibletest2","5","targetBleft","36","18","1","573","6","insect6.jpg","1.0710640102276445251","0.8047766896758409283","0.9379203499517427822","92.8571428571428612031"
"122116","13:16:05","14","14","incompatibletest2","5","attributeA","37","18","1","658","6","Pleasure","1.0710640102276445251","0.8031980547834475237","0.9371310325055459689","92.9824561403508766944"
"122116","13:16:05","14","14","incompatibletest2","5","targetAright","38","23","1","541","2","flower2.jpg","1.0710640102276445251","0.7995678728419916004","0.9353159415348180072","93.1034482758620640652"
"122116","13:16:05","14","14","incompatibletest2","5","attributeB","39","23","1","620","5","Terrible","1.0710640102276445251","0.7977304940448822768","0.9343972521362633454","93.2203389830508371006"
"122116","13:16:05","14","14","incompatibletest2","5","targetAright","40","23","1","448","5","flower5.jpg","1.0710640102276445251","0.7928066788098691031","0.9319353445187568141","93.3333333333333285964"
"122116","13:16:05","14","14","targetcompatiblepractice","6","targetAleft","2","18","1","2730","1","flower1.jpg","1.0710640102276445251","0.7928066788098691031","0.9319353445187568141","93.3333333333333285964"
"122116","13:16:05","14","14","targetcompatiblepractice","6","targetBright","3","23","0","16728","4","insect4.jpg","1.0710640102276445251","0.7928066788098691031","0.9319353445187568141","93.3333333333333285964"
"122116","13:16:05","14","14","targetcompatiblepractice","6","targetBright","4","23","1","669","5","insect5.jpg","1.0710640102276445251","0.7928066788098691031","0.9319353445187568141","93.3333333333333285964"
"122116","13:16:05","14","14","targetcompatiblepractice","6","targetAleft","5","18","1","535","3","flower3.jpg","1.0710640102276445251","0.7928066788098691031","0.9319353445187568141","93.3333333333333285964"
"122116","13:16:05","14","14","targetcompatiblepractice","6","targetBright","6","23","1","566","2","insect2.jpg","1.0710640102276445251","0.7928066788098691031","0.9319353445187568141","93.3333333333333285964"
"122116","13:16:05","14","14","targetcompatiblepractice","6","targetBright","7","23","1","1101","1","insect1.jpg","1.0710640102276445251","0.7928066788098691031","0.9319353445187568141","93.3333333333333285964"
"122116","13:16:05","14","14","targetcompatiblepractice","6","targetBright","8","23","1","492","3","insect3.jpg","1.0710640102276445251","0.7928066788098691031","0.9319353445187568141","93.3333333333333285964"
"122116","13:16:05","14","14","targetcompatiblepractice","6","targetAleft","9","18","1","590","4","flower4.jpg","1.0710640102276445251","0.7928066788098691031","0.9319353445187568141","93.3333333333333285964"
"122116","13:16:05","14","14","targetcompatiblepractice","6","targetAleft","10","18","1","443","6","flower6.jpg","1.0710640102276445251","0.7928066788098691031","0.9319353445187568141","93.3333333333333285964"
"122116","13:16:05","14","14","targetcompatiblepractice","6","targetBright","11","23","1","470","4","insect4.jpg","1.0710640102276445251","0.7928066788098691031","0.9319353445187568141","93.3333333333333285964"
"122116","13:16:05","14","14","targetcompatiblepractice","6","targetAleft","12","18","1","464","2","flower2.jpg","1.0710640102276445251","0.7928066788098691031","0.9319353445187568141","93.3333333333333285964"
"122116","13:16:05","14","14","targetcompatiblepractice","6","targetBright","13","23","1","418","3","insect3.jpg","1.0710640102276445251","0.7928066788098691031","0.9319353445187568141","93.3333333333333285964"
"122116","13:16:05","14","14","targetcompatiblepractice","6","targetBright","14","23","1","582","2","insect2.jpg","1.0710640102276445251","0.7928066788098691031","0.9319353445187568141","93.3333333333333285964"
"122116","13:16:05","14","14","targetcompatiblepractice","6","targetAleft","15","18","1","580","6","flower6.jpg","1.0710640102276445251","0.7928066788098691031","0.9319353445187568141","93.3333333333333285964"
"122116","13:16:05","14","14","targetcompatiblepractice","6","targetAleft","16","18","1","426","3","flower3.jpg","1.0710640102276445251","0.7928066788098691031","0.9319353445187568141","93.3333333333333285964"
"122116","13:16:05","14","14","targetcompatiblepractice","6","targetBright","17","23","1","622","5","insect5.jpg","1.0710640102276445251","0.7928066788098691031","0.9319353445187568141","93.3333333333333285964"
"122116","13:16:05","14","14","targetcompatiblepractice","6","targetBright","18","23","1","473","6","insect6.jpg","1.0710640102276445251","0.7928066788098691031","0.9319353445187568141","93.3333333333333285964"
"122116","13:16:05","14","14","targetcompatiblepractice","6","targetAleft","19","18","1","483","5","flower5.jpg","1.0710640102276445251","0.7928066788098691031","0.9319353445187568141","93.3333333333333285964"
"122116","13:16:05","14","14","targetcompatiblepractice","6","targetAleft","20","18","1","468","1","flower1.jpg","1.0710640102276445251","0.7928066788098691031","0.9319353445187568141","93.3333333333333285964"
"122116","13:16:05","14","14","targetcompatiblepractice","6","targetAleft","21","18","1","510","2","flower2.jpg","1.0710640102276445251","0.7928066788098691031","0.9319353445187568141","93.3333333333333285964"
"122116","13:16:05","14","14","compatibletest1","7","attributeB","2","23","1","1026","1","Evil","0.1190763878967223272","0.7928066788098691031","0.455941533353295736","93.4426229508196826146"
"122116","13:16:05","14","14","compatibletest1","7","targetBright","3","23","1","454","1","insect1.jpg","0.4489413659144849689","0.7928066788098691031","0.620874022362177036","93.5483870967741921731"
"122116","13:16:05","14","14","compatibletest1","7","attributeB","4","23","1","512","7","Failure","0.5418133810073699763","0.7928066788098691031","0.6673100299086195397","93.6507936507936449289"
"122116","13:16:05","14","14","compatibletest1","7","targetBright","5","23","1","417","6","insect6.jpg","0.6187901873713340661","0.7928066788098691031","0.7057984330906015291","93.75"
"122116","13:16:05","14","14","compatibletest1","7","attributeA","6","18","1","541","8","Wonderful","0.6438480225117180211","0.7928066788098691031","0.7183273506607935621","93.846153846153839595"
"122116","13:16:05","14","14","compatibletest1","7","targetBright","7","23","1","500","1","insect1.jpg","0.671728270761169477","0.7928066788098691031","0.7322674747855193456","93.9393939393939376714"
"122116","13:16:05","14","14","compatibletest1","7","attributeA","8","18","1","604","7","Peace","0.6789737431365510112","0.7928066788098691031","0.7358902109732100572","94.0298507462686643521"
"122116","13:16:05","14","14","compatibletest1","7","targetAleft","9","18","1","409","4","flower4.jpg","0.713118150275453111","0.7928066788098691031","0.752962414542661107","94.1176470588235218884"
"122116","13:16:05","14","14","compatibletest1","7","attributeA","10","18","1","453","2","Happy","0.7370281610209679091","0.7928066788098691031","0.7649174199154185061","94.2028985507246403586"
"122116","13:16:05","14","14","compatibletest1","7","targetBright","11","23","1","536","3","insect3.jpg","0.7493828037688766708","0.7928066788098691031","0.7710947412893729425","94.2857142857142775938"
"122116","13:16:05","14","14","compatibletest1","7","attributeB","12","23","1","471","2","Agony","0.767709160255395151","0.7928066788098691031","0.7802579195326321271","94.3661971830985919496"
"122116","13:16:05","14","14","compatibletest1","7","targetAleft","13","18","1","497","6","flower6.jpg","0.7822961322351307256","0.7928066788098691031","0.7875514055224999144","94.4444444444444428655"
"122116","13:16:05","14","14","compatibletest1","7","attributeA","14","18","1","490","4","Love","0.7966883932652866207","0.7928066788098691031","0.7947475360375778619","94.520547945205478868"
"122116","13:16:05","14","14","compatibletest1","7","targetBright","15","23","1","515","2","insect2.jpg","0.8083655314619317966","0.7928066788098691031","0.8005861051359004499","94.594594594594596515"
"122116","13:16:05","14","14","compatibletest1","7","attributeA","16","18","1","588","3","Laughter","0.8140686734265522029","0.7928066788098691031","0.8034376761182107085","94.6666666666666714036"
"122116","13:16:05","14","14","compatibletest1","7","targetAleft","17","18","1","457","4","flower4.jpg","0.8293328531896546618","0.7928066788098691031","0.8110697659997618825","94.7368421052631504153"
"122116","13:16:05","14","14","compatibletest1","7","attributeB","18","23","1","651","3","Awful","0.8304865004513029003","0.7928066788098691031","0.8116465896305860017","94.8051948051948016882"
"122116","13:16:05","14","14","compatibletest1","7","targetAleft","19","18","1","646","3","flower3.jpg","0.832587915414285118","0.7928066788098691031","0.812697297112077166","94.8717948717948615922"
"122116","13:16:05","14","14","compatibletest1","7","attributeB","20","23","1","577","6","Horrible","0.8396393840411262577","0.7928066788098691031","0.8162230314254976804","94.93670886075949511"
"122116","13:16:05","14","14","compatibletest1","7","targetAleft","21","18","1","462","5","flower5.jpg","0.8533747256916726087","0.7928066788098691031","0.8230907022507708559","95"
"122116","13:16:05","14","14","compatibletest2","9","attributeB","1","23","1","826","4","Nasty","0.8533747256916726087","0.2961783909751115051","0.5747765583333920292","95.0617283950617348864"
"122116","13:16:05","14","14","compatibletest2","9","targetAleft","2","18","1","558","1","flower1.jpg","0.8533747256916726087","0.390146926573809727","0.6217608261327411956","95.1219512195121978948"
"122116","13:16:05","14","14","compatibletest2","9","attributeB","3","23","1","828","8","Hurt","0.8533747256916726087","0.3639966419717798884","0.6086856838317262763","95.1807228915662619784"
"122116","13:16:05","14","14","compatibletest2","9","targetBright","4","23","1","736","5","insect5.jpg","0.8533747256916726087","0.3683882307555799707","0.6108814782236262619","95.2380952380952265912"
"122116","13:16:05","14","14","compatibletest2","9","attributeA","5","18","1","1247","5","Glorious","0.8533747256916726087","0.3006491312746366606","0.5770119284831546347","95.2941176470588118264"
"122116","13:16:05","14","14","compatibletest2","9","targetBright","6","23","1","601","4","insect4.jpg","0.8533747256916726087","0.3320924632828846645","0.5927335944872786921","95.3488372093023315301"
"122116","13:16:05","14","14","compatibletest2","9","attributeA","7","18","1","621","1","Joy","0.8533747256916726087","0.3537933435957003603","0.6035840346436864845","95.4022988505747093768"
"122116","13:16:05","14","14","compatibletest2","9","targetAleft","8","18","1","537","2","flower2.jpg","0.8533747256916726087","0.3786133281405678619","0.6159940269161202631","95.4545454545454532536"
"122116","13:16:05","14","14","compatibletest2","9","attributeA","9","18","1","528","7","Peace","0.8533747256916726087","0.3996601610930293758","0.6265174433923510477","95.5056179775280895683"
"122116","13:16:05","14","14","compatibletest2","9","targetAleft","10","18","1","440","3","flower3.jpg","0.8533747256916726087","0.4236732106098856088","0.6385239681507790532","95.5555555555555571345"
"122116","13:16:05","14","14","compatibletest2","9","attributeA","11","18","1","555","6","Pleasure","0.8533747256916726087","0.4367631228274267419","0.6450689242595496475","95.6043956043956058011"
"122116","13:16:05","14","14","compatibletest2","9","targetBright","12","23","1","530","4","insect4.jpg","0.8533747256916726087","0.4499235112382983237","0.6516491184649855217","95.6521739130434838216"
"122116","13:16:05","14","14","compatibletest2","9","attributeA","13","18","1","817","2","Happy","0.8533747256916726087","0.4455865698684810527","0.6494806477800768585","95.698924731182799519"
"122116","13:16:05","14","14","compatibletest2","9","targetBright","14","23","1","741","1","insect1.jpg","0.8533747256916726087","0.4463337416075277564","0.6498542336496001548","95.7446808510638334155"
"122116","13:16:05","14","14","compatibletest2","9","attributeA","15","18","1","620","4","Love","0.8533747256916726087","0.4534505705176707924","0.6534126481046717005","95.7894736842105203323"
"122116","13:16:05","14","14","compatibletest2","9","targetAleft","16","18","1","1000","4","flower4.jpg","0.8533747256916726087","0.4420354035140991455","0.6477050646028859049","95.8333333333333428072"
"122116","13:16:05","14","14","compatibletest2","9","attributeB","17","23","1","1092","4","Nasty","0.8533747256916726087","0.4278183159329485563","0.6405965208123105548","95.8762886597938148725"
"122116","13:16:05","14","14","compatibletest2","9","targetAleft","18","18","1","693","6","flower6.jpg","0.8533747256916726087","0.4326936051157162511","0.6430341654036944021","95.9183673469387656496"
"122116","13:16:05","14","14","compatibletest2","9","attributeB","19","23","1","726","8","Hurt","0.8533747256916726087","0.4360707906944740753","0.644722758193073342","95.9595959595959584476"
"122116","13:16:05","14","14","compatibletest2","9","targetAleft","20","18","1","621","1","flower1.jpg","0.8533747256916726087","0.4435154706271868252","0.6484450981594297447","96"
"122116","13:16:05","14","14","compatibletest2","9","attributeA","21","18","1","1129","3","Laughter","0.8533747256916726087","0.4311345418400493457","0.6422546337658610049","96.0396039603960360864"
"122116","13:16:05","14","14","compatibletest2","9","targetAleft","22","18","1","648","2","flower2.jpg","0.8533747256916726087","0.4376937397566637022","0.645534232724168211","96.0784313725490193292"
"122116","13:16:05","14","14","compatibletest2","9","attributeA","23","18","1","587","5","Glorious","0.8533747256916726087","0.4460743350958905618","0.6497245303937815297","96.1165048543689408689"
"122116","13:16:05","14","14","compatibletest2","9","targetAleft","24","18","1","552","5","flower5.jpg","0.8533747256916726087","0.455209722157274288","0.6542922239244735039","96.153846153846160405"
"122116","13:16:05","14","14","compatibletest2","9","attributeB","25","23","1","679","5","Terrible","0.8533747256916726087","0.4598787494670945608","0.6566267375793836125","96.1904761904761897995"
"122116","13:16:05","14","14","compatibletest2","9","targetBright","26","23","1","488","3","insect3.jpg","0.8533747256916726087","0.4702733261294713141","0.6618240259105719892","96.2264150943396288085"
"122116","13:16:05","14","14","compatibletest2","9","attributeB","27","23","1","553","1","Evil","0.8533747256916726087","0.4782870059993702405","0.6658308658455214246","96.2616822429906591196"
"122116","13:16:05","14","14","compatibletest2","9","targetBright","28","23","1","584","5","insect5.jpg","0.8533747256916726087","0.4851037625888803828","0.669239244140276468","96.2962962962962905067"
"122116","13:16:05","14","14","compatibletest2","9","attributeB","29","23","1","461","2","Agony","0.8533747256916726087","0.4950619514806695043","0.6742183385861710843","96.3302752293577952969"
"122116","13:16:05","14","14","compatibletest2","9","targetBright","30","23","1","464","2","insect2.jpg","0.8533747256916726087","0.5045307220032704265","0.6789527238474715176","96.3636363636363597607"
"122116","13:16:05","14","14","compatibletest2","9","attributeA","31","18","1","554","8","Wonderful","0.8533747256916726087","0.5113157030668354919","0.6823452143792541058","96.3963963963963976767"
"122116","13:16:05","14","14","compatibletest2","9","targetBright","32","23","0","961","6","insect6.jpg","0.8533747256916726087","0.5071193620120513224","0.6802470438518619655","95.5357142857142918047"
"122116","13:16:05","14","14","compatibletest2","9","attributeB","33","23","1","582","3","Awful","0.8533747256916726087","0.513080024990523631","0.6832273753410981199","95.5752212389380559898"
"122116","13:16:05","14","14","compatibletest2","9","targetAleft","34","18","1","516","1","flower1.jpg","0.8533747256916726087","0.5204675064606963941","0.6869211160761845569","95.6140350877193014867"
"122116","13:16:05","14","14","compatibletest2","9","attributeB","35","23","1","580","7","Failure","0.8533747256916726087","0.5261334338268786048","0.6897540797592756068","95.6521739130434838216"
"122116","13:16:05","14","14","compatibletest2","9","targetBright","36","23","1","498","5","insect5.jpg","0.8533747256916726087","0.5335310837789345451","0.6934529047353035214","95.6896551724137935935"
"122116","13:16:05","14","14","compatibletest2","9","attributeA","37","18","1","499","1","Joy","0.8533747256916726087","0.5406919800782862273","0.6970333528849794735","95.7264957264957274674"
"122116","13:16:05","14","14","compatibletest2","9","targetAleft","38","18","1","596","6","flower6.jpg","0.8533747256916726087","0.5455421416932212386","0.6994584336924469792","95.7627118644067820696"
"122116","13:16:05","14","14","compatibletest2","9","attributeB","39","23","1","577","6","Horrible","0.8533747256916726087","0.5507094644439439746","0.7020420950678083472","95.7983193277310931535"
"122116","13:16:05","14","14","compatibletest2","9","targetBright","40","23","1","495","1","insect1.jpg","0.8533747256916726087","0.5574758120724798705","0.7054252688820762396","95.8333333333333428072"
"122116","18:12:24","12","12","targetincompatiblepractice","1","targetBleft","2","18","1","982","5","bm23_nc.jpg","","","0","0"
"122116","18:12:24","12","12","targetincompatiblepractice","1","targetAright","3","23","1","555","1","wf2_nc.jpg","","","0","0"
"122116","18:12:24","12","12","targetincompatiblepractice","1","targetAright","4","23","1","516","2","wf3_nc.jpg","","","0","0"
"122116","18:12:24","12","12","targetincompatiblepractice","1","targetAright","5","23","1","569","6","wm6_nc.jpg","","","0","0"
"122116","18:12:24","12","12","targetincompatiblepractice","1","targetBleft","6","18","1","447","6","bm56_nc.jpg","","","0","0"
"122116","18:12:24","12","12","targetincompatiblepractice","1","targetAright","7","23","1","465","3","wf6_nc.jpg","","","0","0"
"122116","18:12:24","12","12","targetincompatiblepractice","1","targetAright","8","23","1","487","5","wm4_nc.jpg","","","0","0"
"122116","18:12:24","12","12","targetincompatiblepractice","1","targetAright","9","23","1","444","4","wm1_nc.jpg","","","0","0"
"122116","18:12:24","12","12","targetincompatiblepractice","1","targetAright","10","23","1","433","2","wf3_nc.jpg","","","0","0"
"122116","18:12:24","12","12","targetincompatiblepractice","1","targetBleft","11","18","1","543","3","bf56_nc.jpg","","","0","0"
"122116","18:12:24","12","12","targetincompatiblepractice","1","targetBleft","12","18","1","407","1","bf14_nc.jpg","","","0","0"
"122116","18:12:24","12","12","targetincompatiblepractice","1","targetBleft","13","18","1","393","4","bm14_nc.jpg","","","0","0"
"122116","18:12:24","12","12","targetincompatiblepractice","1","targetBleft","14","18","1","384","2","bf23_nc.jpg","","","0","0"
"122116","18:12:24","12","12","targetincompatiblepractice","1","targetBleft","15","18","1","425","5","bm23_nc.jpg","","","0","0"
"122116","18:12:24","12","12","targetincompatiblepractice","1","targetBleft","16","18","1","745","6","bm56_nc.jpg","","","0","0"
"122116","18:12:24","12","12","targetincompatiblepractice","1","targetBleft","17","18","1","404","3","bf56_nc.jpg","","","0","0"
"122116","18:12:24","12","12","targetincompatiblepractice","1","targetBleft","18","18","1","414","4","bm14_nc.jpg","","","0","0"
"122116","18:12:24","12","12","targetincompatiblepractice","1","targetAright","19","23","1","413","6","wm6_nc.jpg","","","0","0"
"122116","18:12:24","12","12","targetincompatiblepractice","1","targetAright","20","23","1","448","5","wm4_nc.jpg","","","0","0"
"122116","18:12:24","12","12","targetincompatiblepractice","1","targetAright","21","23","1","472","1","wf2_nc.jpg","","","0","0"
"122116","18:12:24","12","12","attributepractice","2","attributeA","2","18","1","872","5","Glorious","","","0","0"
"122116","18:12:24","12","12","attributepractice","2","attributeA","3","18","1","510","1","Joy","","","0","0"
"122116","18:12:24","12","12","attributepractice","2","attributeB","4","23","0","737","1","Evil","","","0","0"
"122116","18:12:24","12","12","attributepractice","2","attributeB","5","23","1","404","5","Terrible","","","0","0"
"122116","18:12:24","12","12","attributepractice","2","attributeB","6","23","1","535","7","Failure","","","0","0"
"122116","18:12:24","12","12","attributepractice","2","attributeB","7","23","1","472","4","Nasty","","","0","0"
"122116","18:12:24","12","12","attributepractice","2","attributeA","8","18","1","411","4","Love","","","0","0"
"122116","18:12:24","12","12","attributepractice","2","attributeB","9","23","1","565","8","Hurt","","","0","0"
"122116","18:12:24","12","12","attributepractice","2","attributeA","10","18","1","410","7","Peace","","","0","0"
"122116","18:12:24","12","12","attributepractice","2","attributeA","11","18","1","400","2","Happy","","","0","0"
"122116","18:12:24","12","12","attributepractice","2","attributeB","12","23","1","439","3","Awful","","","0","0"
"122116","18:12:24","12","12","attributepractice","2","attributeA","13","18","1","461","3","Laughter","","","0","0"
"122116","18:12:24","12","12","attributepractice","2","attributeB","14","23","1","527","6","Horrible","","","0","0"
"122116","18:12:24","12","12","attributepractice","2","attributeB","15","23","1","551","2","Agony","","","0","0"
"122116","18:12:24","12","12","attributepractice","2","attributeA","16","18","1","688","8","Wonderful","","","0","0"
"122116","18:12:24","12","12","attributepractice","2","attributeA","17","18","1","477","6","Pleasure","","","0","0"
"122116","18:12:24","12","12","attributepractice","2","attributeA","18","18","1","437","8","Wonderful","","","0","0"
"122116","18:12:24","12","12","attributepractice","2","attributeA","19","18","1","415","6","Pleasure","","","0","0"
"122116","18:12:24","12","12","attributepractice","2","attributeB","20","23","1","529","7","Failure","","","0","0"
"122116","18:12:24","12","12","attributepractice","2","attributeB","21","23","1","527","3","Awful","","","0","0"
"122116","18:12:24","12","12","incompatibletest1","3","attributeB","2","23","1","1211","1","Evil","","","0","100"
"122116","18:12:24","12","12","incompatibletest1","3","targetAright","3","23","1","1056","4","wm1_nc.jpg","1.401173902767723467","","0.7005869513838617335","100"
"122116","18:12:24","12","12","incompatibletest1","3","attributeA","4","18","1","435","1","Joy","1.3098053379675267394","","0.6549026689837633697","100"
"122116","18:12:24","12","12","incompatibletest1","3","targetBleft","5","18","1","478","2","bf23_nc.jpg","1.3109397078702205164","","0.6554698539351102582","100"
"122116","18:12:24","12","12","incompatibletest1","3","attributeA","6","18","1","390","5","Glorious","1.282520976170852034","","0.641260488085426017","100"
"122116","18:12:24","12","12","incompatibletest1","3","targetAright","7","23","1","497","3","wf6_nc.jpg","1.3138111637630789374","","0.6569055818815394687","100"
"122116","18:12:24","12","12","incompatibletest1","3","attributeB","8","23","1","684","5","Terrible","1.3816339088281173186","","0.6908169544140586593","100"
"122116","18:12:24","12","12","incompatibletest1","3","targetAright","9","23","1","469","3","wf6_nc.jpg","1.3948739175786368794","","0.6974369587893184397","100"
"122116","18:12:24","12","12","incompatibletest1","3","attributeB","10","23","1","490","4","Nasty","1.4145190399032177009","","0.7072595199516088504","100"
"122116","18:12:24","12","12","incompatibletest1","3","targetBleft","11","18","1","573","1","bf14_nc.jpg","1.4482041083566616901","","0.7241020541783308451","100"
"122116","18:12:24","12","12","incompatibletest1","3","attributeA","12","18","1","420","3","Laughter","1.4493475504041302138","","0.7246737752020651069","100"
"122116","18:12:24","12","12","incompatibletest1","3","targetAright","13","23","1","509","6","wm6_nc.jpg","1.4697164323321640911","","0.7348582161660820455","100"
"122116","18:12:24","12","12","incompatibletest1","3","attributeB","14","23","1","573","2","Agony","1.4963292314547427253","","0.7481646157273713627","100"
"122116","18:12:24","12","12","incompatibletest1","3","targetBleft","15","18","1","432","6","bm56_nc.jpg","1.5008665564536616266","","0.7504332782268308133","100"
"122116","18:12:24","12","12","incompatibletest1","3","attributeA","16","18","1","367","2","Happy","1.4934617113186627879","","0.746730855659331394","100"
"122116","18:12:24","12","12","incompatibletest1","3","targetAright","17","23","1","568","4","wm1_nc.jpg","1.5157047232694536021","","0.757852361634726801","100"
"122116","18:12:24","12","12","incompatibletest1","3","attributeA","18","18","0","1216","4","Love","1.4582417484850618283","","0.7291208742425309142","94.1176470588235218884"
"122116","18:12:24","12","12","incompatibletest1","3","targetBleft","19","18","1","453","5","bm23_nc.jpg","1.4637742555095774044","","0.7318871277547887022","94.4444444444444428655"
"122116","18:12:24","12","12","incompatibletest1","3","attributeB","20","23","1","545","8","Hurt","1.479203290387397951","","0.7396016451936989755","94.7368421052631504153"
"122116","18:12:24","12","12","incompatibletest1","3","targetBleft","21","18","1","529","1","bf14_nc.jpg","1.4924611806975689454","","0.7462305903487844727","95"
"122116","18:12:24","12","12","incompatibletest2","5","attributeA","1","18","1","710","7","Peace","1.4924611806975689454","","0.7462305903487844727","95.2380952380952265912"
"122116","18:12:24","12","12","incompatibletest2","5","targetBleft","2","18","1","400","2","bf23_nc.jpg","1.4924611806975689454","1.2346678005810003409","1.3635644906392845321","95.4545454545454532536"
"122116","18:12:24","12","12","incompatibletest2","5","attributeA","3","18","1","435","8","Wonderful","1.4924611806975689454","1.4378724007206562518","1.4651667907091125986","95.6521739130434838216"
"122116","18:12:24","12","12","incompatibletest2","5","targetBleft","4","18","1","448","3","bf56_nc.jpg","1.4924611806975689454","1.5518122262198721373","1.5221367034587205413","95.8333333333333428072"
"122116","18:12:24","12","12","incompatibletest2","5","attributeB","5","23","1","546","6","Horrible","1.4924611806975689454","1.6364330470242745008","1.5644471138609217231","96"
"122116","18:12:24","12","12","incompatibletest2","5","targetAright","6","23","1","509","5","wm4_nc.jpg","1.4924611806975689454","1.6934499972405940849","1.5929555889690814041","96.153846153846160405"
"122116","18:12:24","12","12","incompatibletest2","5","attributeA","7","18","1","638","1","Joy","1.4924611806975689454","1.7196783481608099997","1.6060697644291894726","96.2962962962962905067"
"122116","18:12:24","12","12","incompatibletest2","5","targetBleft","8","18","1","394","4","bm14_nc.jpg","1.4924611806975689454","1.7235435427018930277","1.6080023616997309865","96.4285714285714306016"
"122116","18:12:24","12","12","incompatibletest2","5","attributeB","9","23","1","609","2","Agony","1.4924611806975689454","1.7461994701183976009","1.6193303254079833842","96.5517241379310320326"
"122116","18:12:24","12","12","incompatibletest2","5","targetBleft","10","18","1","505","4","bm14_nc.jpg","1.4924611806975689454","1.7687536622985109425","1.6306074214980399439","96.6666666666666714036"
"122116","18:12:24","12","12","incompatibletest2","5","attributeA","11","18","1","588","7","Peace","1.4924611806975689454","1.7864595537291421135","1.6394603672133554184","96.774193548387103192"
"122116","18:12:24","12","12","incompatibletest2","5","targetAright","12","23","1","480","2","wf3_nc.jpg","1.4924611806975689454","1.7997504527097911708","1.6461058167036801692","96.875"
"122116","18:12:24","12","12","incompatibletest2","5","attributeB","13","23","1","529","4","Nasty","1.4924611806975689454","1.8143518184111311342","1.6534064995543500398","96.9696969696969688357"
"122116","18:12:24","12","12","incompatibletest2","5","targetAright","14","23","1","558","1","wf2_nc.jpg","1.4924611806975689454","1.8267272452776710523","1.6595942129876199989","97.0588235294117680496"
"122116","18:12:24","12","12","incompatibletest2","5","attributeB","15","23","1","519","6","Horrible","1.4924611806975689454","1.8374802694113123724","1.66497072505444077","97.1428571428571387969"
"122116","18:12:24","12","12","incompatibletest2","5","targetBleft","16","18","1","425","1","bf14_nc.jpg","1.4924611806975689454","1.8379006706640650393","1.6651809256808169923","97.2222222222222143273"
"122116","18:12:24","12","12","incompatibletest2","5","attributeA","17","18","1","424","6","Pleasure","1.4924611806975689454","1.838797036332309176","1.6656291085149390607","97.2972972972973053629"
"122116","18:12:24","12","12","incompatibletest2","5","targetAright","18","23","1","453","1","wf2_nc.jpg","1.4924611806975689454","1.8436534428432391763","1.6680573117704040609","97.3684210526315752077"
"122116","18:12:24","12","12","incompatibletest2","5","attributeA","19","18","1","468","2","Happy","1.4924611806975689454","1.8495222388620491394","1.6709917097798090424","97.4358974358974307961"
"122116","18:12:24","12","12","incompatibletest2","5","targetBleft","20","18","1","506","2","bf23_nc.jpg","1.4924611806975689454","1.8565887938508889299","1.6745249872742289377","97.5"
"122116","18:12:24","12","12","incompatibletest2","5","attributeB","21","23","1","567","1","Evil","1.4924611806975689454","1.8618466901691239634","1.6771539354333464544","97.5609756097560989474"
"122116","18:12:24","12","12","incompatibletest2","5","targetBleft","22","18","1","427","5","bm23_nc.jpg","1.4924611806975689454","1.8626179350564131543","1.6775395578769911609","97.619047619047620401"
"122116","18:12:24","12","12","incompatibletest2","5","attributeB","23","23","1","455","7","Failure","1.4924611806975689454","1.8660698301653400044","1.6792655054314544749","97.6744186046511515542"
"122116","18:12:24","12","12","incompatibletest2","5","targetBleft","24","18","1","450","6","bm56_nc.jpg","1.4924611806975689454","1.8690362722271500751","1.6807487264623595102","97.7272727272727337322"
"122116","18:12:24","12","12","incompatibletest2","5","attributeB","25","23","1","471","3","Awful","1.4924611806975689454","1.8730964448654925381","1.6827788127815308528","97.7777777777777714618"
"122116","18:12:24","12","12","incompatibletest2","5","targetAright","26","23","1","563","2","wf3_nc.jpg","1.4924611806975689454","1.8765006349415904729","1.6844809078195797092","97.8260869565217348054"
"122116","18:12:24","12","12","incompatibletest2","5","attributeA","27","18","1","373","4","Love","1.4924611806975689454","1.8710353369983083738","1.6817482588479386596","97.8723404255319167078"
"122116","18:12:24","12","12","incompatibletest2","5","targetAright","28","23","1","453","3","wf6_nc.jpg","1.4924611806975689454","1.8738649735071188918","1.6831630771023440296","97.9166666666666571928"
"122116","18:12:24","12","12","incompatibletest2","5","attributeA","29","18","0","841","5","Glorious","1.4924611806975689454","1.8311244911454103157","1.6617928359214895195","95.9183673469387656496"
"122116","18:12:24","12","12","incompatibletest2","5","targetAright","30","23","1","455","4","wm1_nc.jpg","1.4924611806975689454","1.8342813165861049374","1.6633712486418370524","96"
"122116","18:12:24","12","12","incompatibletest2","5","attributeB","31","23","0","732","8","Hurt","1.4924611806975689454","1.8233270310807638825","1.657894105889166525","94.1176470588235218884"
"122116","18:12:24","12","12","incompatibletest2","5","targetAright","32","23","1","616","6","wm6_nc.jpg","1.4924611806975689454","1.82613956493121532","1.6593003728143922437","94.2307692307692263967"
"122116","18:12:24","12","12","incompatibletest2","5","attributeB","33","23","1","808","5","Terrible","1.4924611806975689454","1.8070554240316842876","1.6497583023646265055","94.3396226415094361073"
"122116","18:12:24","12","12","incompatibletest2","5","targetBleft","34","18","1","422","3","bf56_nc.jpg","1.4924611806975689454","1.8070317149512471477","1.6497464478244081576","94.4444444444444428655"
"122116","18:12:24","12","12","incompatibletest2","5","attributeB","35","23","1","616","4","Nasty","1.4924611806975689454","1.8106829875353809278","1.6515720841164749366","94.5454545454545467464"
"122116","18:12:24","12","12","incompatibletest2","5","targetAright","36","23","1","704","5","wm4_nc.jpg","1.4924611806975689454","1.8085744419952733963","1.6505178113464211709","94.6428571428571387969"
"122116","18:12:24","12","12","incompatibletest2","5","attributeA","37","18","1","464","3","Laughter","1.4924611806975689454","1.8109425298275767524","1.6517018552625728489","94.7368421052631504153"
"122116","18:12:24","12","12","incompatibletest2","5","targetAright","38","23","1","541","6","wm6_nc.jpg","1.4924611806975689454","1.8154951254335986999","1.6539781530655837116","94.8275862068965551543"
"122116","18:12:24","12","12","incompatibletest2","5","attributeA","39","18","1","660","1","Joy","1.4924611806975689454","1.8167643818481009621","1.6546127812728350648","94.9152542372881384836"
"122116","18:12:24","12","12","incompatibletest2","5","targetBleft","40","18","1","429","4","bm14_nc.jpg","1.4924611806975689454","1.8166583343748323731","1.6545597575362007703","95"
"122116","18:12:24","12","12","targetcompatiblepractice","6","targetBright","2","23","1","1546","2","bf23_nc.jpg","1.4924611806975689454","1.8166583343748323731","1.6545597575362007703","95"
"122116","18:12:24","12","12","targetcompatiblepractice","6","targetBright","3","23","1","664","1","bf14_nc.jpg","1.4924611806975689454","1.8166583343748323731","1.6545597575362007703","95"
"122116","18:12:24","12","12","targetcompatiblepractice","6","targetBright","4","23","1","554","3","bf56_nc.jpg","1.4924611806975689454","1.8166583343748323731","1.6545597575362007703","95"
"122116","18:12:24","12","12","targetcompatiblepractice","6","targetBright","5","23","1","551","6","bm56_nc.jpg","1.4924611806975689454","1.8166583343748323731","1.6545597575362007703","95"
"122116","18:12:24","12","12","targetcompatiblepractice","6","targetAleft","6","18","1","403","2","wf3_nc.jpg","1.4924611806975689454","1.8166583343748323731","1.6545597575362007703","95"
"122116","18:12:24","12","12","targetcompatiblepractice","6","targetBright","7","23","1","412","5","bm23_nc.jpg","1.4924611806975689454","1.8166583343748323731","1.6545597575362007703","95"
"122116","18:12:24","12","12","targetcompatiblepractice","6","targetAleft","8","18","1","889","3","wf6_nc.jpg","1.4924611806975689454","1.8166583343748323731","1.6545597575362007703","95"
"122116","18:12:24","12","12","targetcompatiblepractice","6","targetAleft","9","18","1","559","5","wm4_nc.jpg","1.4924611806975689454","1.8166583343748323731","1.6545597575362007703","95"
"122116","18:12:24","12","12","targetcompatiblepractice","6","targetBright","10","23","1","430","6","bm56_nc.jpg","1.4924611806975689454","1.8166583343748323731","1.6545597575362007703","95"
"122116","18:12:24","12","12","targetcompatiblepractice","6","targetAleft","11","18","1","549","1","wf2_nc.jpg","1.4924611806975689454","1.8166583343748323731","1.6545597575362007703","95"
"122116","18:12:24","12","12","targetcompatiblepractice","6","targetAleft","12","18","1","515","4","wm1_nc.jpg","1.4924611806975689454","1.8166583343748323731","1.6545597575362007703","95"
"122116","18:12:24","12","12","targetcompatiblepractice","6","targetAleft","13","18","1","525","2","wf3_nc.jpg","1.4924611806975689454","1.8166583343748323731","1.6545597575362007703","95"
"122116","18:12:24","12","12","targetcompatiblepractice","6","targetBright","14","23","1","479","2","bf23_nc.jpg","1.4924611806975689454","1.8166583343748323731","1.6545597575362007703","95"
"122116","18:12:24","12","12","targetcompatiblepractice","6","targetBright","15","23","1","445","5","bm23_nc.jpg","1.4924611806975689454","1.8166583343748323731","1.6545597575362007703","95"
"122116","18:12:24","12","12","targetcompatiblepractice","6","targetAleft","16","18","1","711","4","wm1_nc.jpg","1.4924611806975689454","1.8166583343748323731","1.6545597575362007703","95"
"122116","18:12:24","12","12","targetcompatiblepractice","6","targetAleft","17","18","1","479","5","wm4_nc.jpg","1.4924611806975689454","1.8166583343748323731","1.6545597575362007703","95"
"122116","18:12:24","12","12","targetcompatiblepractice","6","targetAleft","18","18","1","494","1","wf2_nc.jpg","1.4924611806975689454","1.8166583343748323731","1.6545597575362007703","95"
"122116","18:12:24","12","12","targetcompatiblepractice","6","targetAleft","19","18","1","1730","6","wm6_nc.jpg","1.4924611806975689454","1.8166583343748323731","1.6545597575362007703","95"
"122116","18:12:24","12","12","targetcompatiblepractice","6","targetBright","20","23","1","469","1","bf14_nc.jpg","1.4924611806975689454","1.8166583343748323731","1.6545597575362007703","95"
"122116","18:12:24","12","12","targetcompatiblepractice","6","targetBright","21","23","1","471","3","bf56_nc.jpg","1.4924611806975689454","1.8166583343748323731","1.6545597575362007703","95"
"122116","18:12:24","12","12","compatibletest1","7","attributeA","2","18","1","614","2","Happy","-0.0769817358441055866","1.8166583343748323731","0.8698382992653633794","95.0819672131147513028"
"122116","18:12:24","12","12","compatibletest1","7","targetAleft","3","18","1","649","3","wf6_nc.jpg","-0.1502287997107351891","1.8166583343748323731","0.8332147673320485781","95.161290322580654788"
"122116","18:12:24","12","12","compatibletest1","7","attributeB","4","23","1","570","2","Agony","-0.0680827621458677812","1.8166583343748323731","0.8742877861144823237","95.2380952380952265912"
"122116","18:12:24","12","12","compatibletest1","7","targetAleft","5","18","1","548","6","wm6_nc.jpg","-0.002140689059842475","1.8166583343748323731","0.9072588226574949122","95.3125"
"122116","18:12:24","12","12","compatibletest1","7","attributeB","6","23","1","771","5","Terrible","-0.1539240005129292321","1.8166583343748323731","0.8313671669309515844","95.3846153846153868017"
"122116","18:12:24","12","12","compatibletest1","7","targetAleft","7","18","1","664","4","wm1_nc.jpg","-0.1814896285814955879","1.8166583343748323731","0.8175843528966684204","95.4545454545454532536"
"122116","18:12:24","12","12","compatibletest1","7","attributeB","8","23","1","580","6","Horrible","-0.1492413515818127312","1.8166583343748323731","0.833708491396509821","95.5223880597014840532"
"122116","18:12:24","12","12","compatibletest1","7","targetBright","9","23","1","715","4","bm14_nc.jpg","-0.2008334813423754972","1.8166583343748323731","0.8079124265162284102","95.5882352941176520744"
"122116","18:12:24","12","12","compatibletest1","7","attributeB","10","23","1","1017","3","Awful","-0.3758633417314631853","1.8166583343748323731","0.7203974963216845939","95.6521739130434838216"
"122116","18:12:24","12","12","compatibletest1","7","targetBright","11","23","1","612","6","bm56_nc.jpg","-0.3522146689554266352","1.8166583343748323731","0.7322218327097028689","95.7142857142857224062"
"122116","18:12:24","12","12","compatibletest1","7","attributeB","12","23","1","738","8","Hurt","-0.3828831293578220385","1.8166583343748323731","0.7168876025085051396","95.7746478873239368568"
"122116","18:12:24","12","12","compatibletest1","7","targetAleft","13","18","1","352","3","wf6_nc.jpg","-0.258266080508334217","1.8166583343748323731","0.7791961269332490225","95.8333333333333428072"
"122116","18:12:24","12","12","compatibletest1","7","attributeA","14","18","1","372","4","Love","-0.1614312743125399241","1.8166583343748323731","0.8276135300311462384","95.8904109589040984929"
"122116","18:12:24","12","12","compatibletest1","7","targetBright","15","23","1","978","5","bm23_nc.jpg","-0.2655421489932297541","1.8166583343748323731","0.7755580926908013373","95.9459459459459367281"
"122116","18:12:24","12","12","compatibletest1","7","attributeA","16","18","1","514","6","Pleasure","-0.2270894023435355291","1.8166583343748323731","0.7947844660156484498","96"
"122116","18:12:24","12","12","compatibletest1","7","targetBright","17","23","1","620","1","bf14_nc.jpg","-0.2230744785922713636","1.8166583343748323731","0.7967919278912805048","96.0526315789473699169"
"122116","18:12:24","12","12","compatibletest1","7","attributeA","18","18","1","545","7","Peace","-0.1993783349677228367","1.8166583343748323731","0.8086399997035547127","96.1038961038961048189"
"122116","18:12:24","12","12","compatibletest1","7","targetBright","19","23","1","548","4","bm14_nc.jpg","-0.1787535529376122201","1.8166583343748323731","0.8189523907186100349","96.153846153846160405"
"122116","18:12:24","12","12","compatibletest1","7","attributeA","20","18","1","372","3","Laughter","-0.1152818488952354892","1.8166583343748323731","0.8506882427397984836","96.2025316455696213325"
"122116","18:12:24","12","12","compatibletest1","7","targetAleft","21","18","1","362","1","wf2_nc.jpg","-0.0561126200524449392","1.8166583343748323731","0.8802728571611937447","96.25"
"122116","18:12:24","12","12","compatibletest2","9","attributeB","1","23","1","679","1","Evil","-0.0561126200524449392","-1.0983916076197477452","-0.5772521138360963144","96.2962962962962905067"
"122116","18:12:24","12","12","compatibletest2","9","targetBright","2","23","1","597","3","bf56_nc.jpg","-0.0561126200524449392","-0.8686761852717045373","-0.462394402662074766","96.3414634146341484211"
"122116","18:12:24","12","12","compatibletest2","9","attributeA","3","18","1","542","5","Glorious","-0.0561126200524449392","-0.6475248182512294282","-0.3518187191518371559","96.3855421686747035892"
"122116","18:12:24","12","12","compatibletest2","9","targetBright","4","23","1","519","2","bf23_nc.jpg","-0.0561126200524449392","-0.4782607776714414838","-0.2671866988619432393","96.4285714285714306016"
"122116","18:12:24","12","12","compatibletest2","9","attributeB","5","23","1","549","7","Failure","-0.0561126200524449392","-0.4235954389114606755","-0.2398540294819528074","96.4705882352941159752"
"122116","18:12:24","12","12","compatibletest2","9","targetBright","6","23","1","562","6","bm56_nc.jpg","-0.0561126200524449392","-0.4062119049170769824","-0.2311622624847609608","96.511627906976755753"
"122116","18:12:24","12","12","compatibletest2","9","attributeA","7","18","1","490","8","Wonderful","-0.0561126200524449392","-0.3012511528459694832","-0.1786818864492072112","96.5517241379310320326"
"122116","18:12:24","12","12","compatibletest2","9","targetBright","8","23","1","467","5","bm23_nc.jpg","-0.0561126200524449392","-0.1934867123000561795","-0.1247996661762505594","96.5909090909090934929"
"122116","18:12:24","12","12","compatibletest2","9","attributeB","9","23","1","583","4","Nasty","-0.0561126200524449392","-0.228634374422690384","-0.1423734972375676477","96.6292134831460742816"
"122116","18:12:24","12","12","compatibletest2","9","targetAleft","10","18","1","381","5","wm4_nc.jpg","-0.0561126200524449392","-0.0661119628966855","-0.0611122914745652196","96.6666666666666714036"
"122116","18:12:24","12","12","compatibletest2","9","attributeA","11","18","1","425","5","Glorious","-0.0561126200524449392","0.0282976913507911633","-0.013907464350826888","96.7032967032967007981"
"122116","18:12:24","12","12","compatibletest2","9","targetBright","12","23","1","501","3","bf56_nc.jpg","-0.0561126200524449392","0.0486483382053235699","-0.0037321409235606846","96.7391304347826093135"
"122116","18:12:24","12","12","compatibletest2","9","attributeB","13","23","1","589","5","Terrible","-0.0561126200524449392","0.0022314243679447017","-0.0269405978422501205","96.774193548387103192"
"122116","18:12:24","12","12","compatibletest2","9","targetAleft","14","18","1","407","2","wf3_nc.jpg","-0.0561126200524449392","0.084532882685203467","0.0142101313163792639","96.8085106382978750617"
"122116","18:12:24","12","12","compatibletest2","9","attributeB","15","23","1","470","2","Agony","-0.0561126200524449392","0.1171300533885000633","0.030508716668027562","96.8421052631578902492"
"122116","18:12:24","12","12","compatibletest2","9","targetAleft","16","18","1","690","4","wm1_nc.jpg","-0.0561126200524449392","0.0148490972219244254","-0.0206317614152602552","96.875"
"122116","18:12:24","12","12","compatibletest2","9","attributeA","17","18","1","432","7","Peace","-0.0561126200524449392","0.0678801169385230413","0.005883748443039051","96.9072164948453576017"
"122116","18:12:24","12","12","compatibletest2","9","targetAleft","18","18","1","512","5","wm4_nc.jpg","-0.0561126200524449392","0.0739982270656523167","0.0089428035066036887","96.9387755102040813426"
"122116","18:12:24","12","12","compatibletest2","9","attributeA","19","18","1","454","2","Happy","-0.0561126200524449392","0.108275494660307614","0.0260814373039313374","96.9696969696969688357"
"122116","18:12:24","12","12","compatibletest2","9","targetAleft","20","18","1","511","1","wf2_nc.jpg","-0.0561126200524449392","0.1127135458566986409","0.0283004629021268508","97"
"122116","18:12:24","12","12","compatibletest2","9","attributeA","21","18","1","471","8","Wonderful","-0.0561126200524449392","0.1349532275889914479","0.0394203037682732543","97.0297029702970235121"
"122116","18:12:24","12","12","compatibletest2","9","targetAleft","22","18","1","423","2","wf3_nc.jpg","-0.0561126200524449392","0.1756148123117147186","0.0597510961296348897","97.0588235294117680496"
"122116","18:12:24","12","12","compatibletest2","9","attributeB","23","23","1","477","3","Awful","-0.0561126200524449392","0.1913271971222489376","0.0676072885349019992","97.0873786407767056517"
"122116","18:12:24","12","12","compatibletest2","9","targetBright","24","23","1","522","4","bm14_nc.jpg","-0.0561126200524449392","0.1880053593486037955","0.0659463696480794281","97.1153846153846131983"
"122116","18:12:24","12","12","compatibletest2","9","attributeA","25","18","1","415","1","Joy","-0.0561126200524449392","0.225191322056471549","0.0845393510020133049","97.1428571428571387969"
"122116","18:12:24","12","12","compatibletest2","9","targetBright","26","23","1","444","1","bf14_nc.jpg","-0.0561126200524449392","0.2496041763081836562","0.0967457781278693585","97.1698113207547180536"
"122116","18:12:24","12","12","compatibletest2","9","attributeA","27","18","1","461","6","Pleasure","-0.0561126200524449392","0.2666927805644675464","0.1052900802560113036","97.196261682242990787"
"122116","18:12:24","12","12","compatibletest2","9","targetAleft","28","18","1","392","6","wm6_nc.jpg","-0.0561126200524449392","0.3044100967789435952","0.124148738363249328","97.2222222222222143273"
"122116","18:12:24","12","12","compatibletest2","9","attributeB","29","23","1","432","6","Horrible","-0.0561126200524449392","0.3277582270054737457","0.1358228034765144032","97.2477064220183535781"
"122116","18:12:24","12","12","compatibletest2","9","targetBright","30","23","1","487","2","bf23_nc.jpg","-0.0561126200524449392","0.3331058579269243203","0.1384966189372396905","97.2727272727272804786"
"122116","18:12:24","12","12","compatibletest2","9","attributeB","31","23","1","484","8","Hurt","-0.0561126200524449392","0.3391986802776807974","0.1415430301126179291","97.2972972972973053629"
"122116","18:12:24","12","12","compatibletest2","9","targetAleft","32","18","1","406","3","wf6_nc.jpg","-0.0561126200524449392","0.3667389451831985503","0.1553131625653768055","97.3214285714285693984"
"122116","18:12:24","12","12","compatibletest2","9","attributeB","33","23","1","405","7","Failure","-0.0561126200524449392","0.3928734337129869414","0.1683804068302710011","97.3451327433628250674"
"122116","18:12:24","12","12","compatibletest2","9","targetBright","34","23","1","547","2","bf23_nc.jpg","-0.0561126200524449392","0.3785909580311918043","0.1612391689893734326","97.3684210526315752077"
"122116","18:12:24","12","12","compatibletest2","9","attributeB","35","23","1","420","1","Evil","-0.0561126200524449392","0.3995936579664850496","0.1717405189570200552","97.3913043478260931352"
"122116","18:12:24","12","12","compatibletest2","9","targetAleft","36","18","1","430","3","wf6_nc.jpg","-0.0561126200524449392","0.4172377197595655285","0.1805625498535602946","97.4137931034482704717"
"122116","18:12:24","12","12","compatibletest2","9","attributeA","37","18","1","525","3","Laughter","-0.0561126200524449392","0.4099142888767337012","0.176900834412144381","97.4358974358974307961"
"122116","18:12:24","12","12","compatibletest2","9","targetBright","38","23","1","420","1","bf14_nc.jpg","-0.0561126200524449392","0.4288265689887686971","0.1863569744681618789","97.4576271186440692418"
"122116","18:12:24","12","12","compatibletest2","9","attributeA","39","18","1","492","4","Love","-0.0561126200524449392","0.4303217133041276066","0.1871045466258413337","97.4789915966386502078"
"122116","18:12:24","12","12","compatibletest2","9","targetAleft","40","18","1","473","4","wm1_nc.jpg","-0.0561126200524449392","0.4364217360799252932","0.190154558013740177","97.5"
"122116","13:02:54","10","10","targetincompatiblepractice","1","targetBleft","2","18","1","2299","1","bf14_nc.jpg","","","0","0"
"122116","13:02:54","10","10","targetincompatiblepractice","1","targetAright","3","23","1","637","1","wf2_nc.jpg","","","0","0"
"122116","13:02:54","10","10","targetincompatiblepractice","1","targetAright","4","23","1","704","3","wf6_nc.jpg","","","0","0"
"122116","13:02:54","10","10","targetincompatiblepractice","1","targetAright","5","23","1","706","4","wm1_nc.jpg","","","0","0"
"122116","13:02:54","10","10","targetincompatiblepractice","1","targetBleft","6","18","1","652","6","bm56_nc.jpg","","","0","0"
"122116","13:02:54","10","10","targetincompatiblepractice","1","targetBleft","7","18","1","743","3","bf56_nc.jpg","","","0","0"
"122116","13:02:54","10","10","targetincompatiblepractice","1","targetBleft","8","18","1","759","2","bf23_nc.jpg","","","0","0"
"122116","13:02:54","10","10","targetincompatiblepractice","1","targetBleft","9","18","1","791","5","bm23_nc.jpg","","","0","0"
"122116","13:02:54","10","10","targetincompatiblepractice","1","targetAright","10","23","1","598","5","wm4_nc.jpg","","","0","0"
"122116","13:02:54","10","10","targetincompatiblepractice","1","targetAright","11","23","1","547","2","wf3_nc.jpg","","","0","0"
"122116","13:02:54","10","10","targetincompatiblepractice","1","targetAright","12","23","1","692","6","wm6_nc.jpg","","","0","0"
"122116","13:02:54","10","10","targetincompatiblepractice","1","targetBleft","13","18","1","695","4","bm14_nc.jpg","","","0","0"
"122116","13:02:54","10","10","targetincompatiblepractice","1","targetBleft","14","18","1","768","5","bm23_nc.jpg","","","0","0"
"122116","13:02:54","10","10","targetincompatiblepractice","1","targetAright","15","23","1","943","4","wm1_nc.jpg","","","0","0"
"122116","13:02:54","10","10","targetincompatiblepractice","1","targetAright","16","23","1","711","2","wf3_nc.jpg","","","0","0"
"122116","13:02:54","10","10","targetincompatiblepractice","1","targetBleft","17","18","1","696","2","bf23_nc.jpg","","","0","0"
"122116","13:02:54","10","10","targetincompatiblepractice","1","targetAright","18","23","1","659","5","wm4_nc.jpg","","","0","0"
"122116","13:02:54","10","10","targetincompatiblepractice","1","targetAright","19","23","1","1046","3","wf6_nc.jpg","","","0","0"
"122116","13:02:54","10","10","targetincompatiblepractice","1","targetBleft","20","18","1","971","1","bf14_nc.jpg","","","0","0"
"122116","13:02:54","10","10","targetincompatiblepractice","1","targetBleft","21","18","1","1002","3","bf56_nc.jpg","","","0","0"
"122116","13:02:54","10","10","attributepractice","2","attributeB","2","23","1","941","7","Failure","","","0","0"
"122116","13:02:54","10","10","attributepractice","2","attributeA","3","18","1","893","3","Laughter","","","0","0"
"122116","13:02:54","10","10","attributepractice","2","attributeB","4","23","1","944","4","Nasty","","","0","0"
"122116","13:02:54","10","10","attributepractice","2","attributeB","5","23","1","2047","2","Agony","","","0","0"
"122116","13:02:54","10","10","attributepractice","2","attributeB","6","23","1","667","3","Awful","","","0","0"
"122116","13:02:54","10","10","attributepractice","2","attributeB","7","23","1","726","8","Hurt","","","0","0"
"122116","13:02:54","10","10","attributepractice","2","attributeB","8","23","1","472","1","Evil","","","0","0"
"122116","13:02:54","10","10","attributepractice","2","attributeA","9","18","1","682","4","Love","","","0","0"
"122116","13:02:54","10","10","attributepractice","2","attributeB","10","23","1","700","5","Terrible","","","0","0"
"122116","13:02:54","10","10","attributepractice","2","attributeA","11","18","1","493","2","Happy","","","0","0"
"122116","13:02:54","10","10","attributepractice","2","attributeA","12","18","1","712","7","Peace","","","0","0"
"122116","13:02:54","10","10","attributepractice","2","attributeA","13","18","1","657","5","Glorious","","","0","0"
"122116","13:02:54","10","10","attributepractice","2","attributeA","14","18","1","541","1","Joy","","","0","0"
"122116","13:02:54","10","10","attributepractice","2","attributeA","15","18","1","606","6","Pleasure","","","0","0"
"122116","13:02:54","10","10","attributepractice","2","attributeB","16","23","1","762","6","Horrible","","","0","0"
"122116","13:02:54","10","10","attributepractice","2","attributeA","17","18","1","794","8","Wonderful","","","0","0"
"122116","13:02:54","10","10","attributepractice","2","attributeA","18","18","1","648","2","Happy","","","0","0"
"122116","13:02:54","10","10","attributepractice","2","attributeB","19","23","0","3380","6","Horrible","","","0","0"
"122116","13:02:54","10","10","attributepractice","2","attributeB","20","23","1","619","4","Nasty","","","0","0"
"122116","13:02:54","10","10","attributepractice","2","attributeA","21","18","1","640","4","Love","","","0","0"
"122116","13:02:54","10","10","incompatibletest1","3","attributeA","2","18","1","733","1","Joy","","","0","100"
"122116","13:02:54","10","10","incompatibletest1","3","targetAright","3","23","1","693","6","wm6_nc.jpg","1.4119933104590551842","","0.7059966552295275921","100"
"122116","13:02:54","10","10","incompatibletest1","3","attributeA","4","18","1","1576","7","Peace","1.2666093346623275018","","0.6333046673311637509","100"
"122116","13:02:54","10","10","incompatibletest1","3","targetAright","5","23","1","768","1","wf2_nc.jpg","1.366938070792367288","","0.683469035396183644","100"
"122116","13:02:54","10","10","incompatibletest1","3","attributeB","6","23","1","757","1","Evil","1.4360001693609660833","","0.7180000846804830417","100"
"122116","13:02:54","10","10","incompatibletest1","3","targetAright","7","23","1","558","3","wf6_nc.jpg","1.4352463560023767108","","0.7176231780011883554","100"
"122116","13:02:54","10","10","incompatibletest1","3","attributeB","8","23","1","1140","3","Awful","1.4948975589913047202","","0.7474487794956523601","100"
"122116","13:02:54","10","10","incompatibletest1","3","targetAright","9","23","1","565","6","wm6_nc.jpg","1.4897503549921229382","","0.7448751774960614691","100"
"122116","13:02:54","10","10","incompatibletest1","3","attributeB","10","23","1","772","2","Agony","1.5260885491587881102","","0.7630442745793940551","100"
"122116","13:02:54","10","10","incompatibletest1","3","targetBleft","11","18","1","635","6","bm56_nc.jpg","1.5386591393946824624","","0.7693295696973412312","100"
"122116","13:02:54","10","10","incompatibletest1","3","attributeA","12","18","1","503","3","Laughter","1.5260918147109332477","","0.7630459073554666238","100"
"122116","13:02:54","10","10","incompatibletest1","3","targetBleft","13","18","1","577","4","bm14_nc.jpg","1.5321346056248916767","","0.7660673028124458384","100"
"122116","13:02:54","10","10","incompatibletest1","3","attributeA","14","18","1","840","5","Glorious","1.5616489776295268133","","0.7808244888147634066","100"
"122116","13:02:54","10","10","incompatibletest1","3","targetAright","15","23","1","581","2","wf3_nc.jpg","1.5669521101487406955","","0.7834760550743703478","100"
"122116","13:02:54","10","10","incompatibletest1","3","attributeA","16","18","1","547","8","Wonderful","1.5681893793940011594","","0.7840946896970005797","100"
"122116","13:02:54","10","10","incompatibletest1","3","targetBleft","17","18","1","675","6","bm56_nc.jpg","1.5842178254851542185","","0.7921089127425771093","100"
"122116","13:02:54","10","10","incompatibletest1","3","attributeB","18","23","1","1119","5","Terrible","1.5887643947279108669","","0.7943821973639554335","100"
"122116","13:02:54","10","10","incompatibletest1","3","targetBleft","19","18","1","1334","1","bf14_nc.jpg","1.5692562480042053785","","0.7846281240021026893","100"
"122116","13:02:54","10","10","incompatibletest1","3","attributeB","20","23","1","1119","7","Failure","1.5809925948260452611","","0.7904962974130226305","100"
"122116","13:02:54","10","10","incompatibletest1","3","targetBleft","21","18","1","704","4","bm14_nc.jpg","1.5913130713660410542","","0.7956565356830205271","100"
"122116","13:02:54","10","10","incompatibletest2","5","attributeA","1","18","1","888","6","Pleasure","1.5913130713660410542","","0.7956565356830205271","100"
"122116","13:02:54","10","10","incompatibletest2","5","targetBleft","2","18","1","842","2","bf23_nc.jpg","1.5913130713660410542","1.4122180772458075015","1.5017655743059243889","100"
"122116","13:02:54","10","10","incompatibletest2","5","attributeB","3","23","1","758","8","Hurt","1.5913130713660410542","1.6194087036037241312","1.6053608874848825927","100"
"122116","13:02:54","10","10","incompatibletest2","5","targetBleft","4","18","1","685","5","bm23_nc.jpg","1.5913130713660410542","1.6995262319777806326","1.6454196516719108434","100"
"122116","13:02:54","10","10","incompatibletest2","5","attributeB","5","23","1","1280","5","Terrible","1.5913130713660410542","1.6224162543020659299","1.6068646628340534921","100"
"122116","13:02:54","10","10","incompatibletest2","5","targetBleft","6","18","1","1195","3","bf56_nc.jpg","1.5913130713660410542","1.6536346700150379441","1.6224738706905394992","100"
"122116","13:02:54","10","10","incompatibletest2","5","attributeA","7","18","1","1064","8","Wonderful","1.5913130713660410542","1.6981649162256384766","1.6447389937958396544","100"
"122116","13:02:54","10","10","incompatibletest2","5","targetBleft","8","18","1","628","6","bm56_nc.jpg","1.5913130713660410542","1.6817927002864434538","1.636552885826242143","100"
"122116","13:02:54","10","10","incompatibletest2","5","attributeA","9","18","1","449","7","Peace","1.5913130713660410542","1.6210929429555369641","1.6062030071607891202","100"
"122116","13:02:54","10","10","incompatibletest2","5","targetBleft","10","18","1","612","3","bf56_nc.jpg","1.5913130713660410542","1.6210861856145952764","1.6061996284903181653","100"
"122116","13:02:54","10","10","incompatibletest2","5","attributeA","11","18","1","514","4","Love","1.5913130713660410542","1.6031668123282163396","1.597239941847128808","100"
"122116","13:02:54","10","10","incompatibletest2","5","targetAright","12","23","1","643","5","wm4_nc.jpg","1.5913130713660410542","1.6141875439703416983","1.6027503076681912653","100"
"122116","13:02:54","10","10","incompatibletest2","5","attributeB","13","23","1","383","1","Evil","1.5913130713660410542","1.5737257318586648225","1.5825194016123529384","100"
"122116","13:02:54","10","10","incompatibletest2","5","targetAright","14","23","1","518","4","wm1_nc.jpg","1.5913130713660410542","1.5701971025672414317","1.580755086966641354","100"
"122116","13:02:54","10","10","incompatibletest2","5","attributeB","15","23","1","439","3","Awful","1.5913130713660410542","1.5546871886763513615","1.5730001300211962079","100"
"122116","13:02:54","10","10","incompatibletest2","5","targetAright","16","23","1","450","1","wf2_nc.jpg","1.5913130713660410542","1.5448198027468480475","1.5680664370564445509","100"
"122116","13:02:54","10","10","incompatibletest2","5","attributeB","17","23","1","822","4","Nasty","1.5913130713660410542","1.5669254033254236269","1.5791192373457323406","100"
"122116","13:02:54","10","10","incompatibletest2","5","targetBleft","18","18","1","891","2","bf23_nc.jpg","1.5913130713660410542","1.585660991350485105","1.5884870313582630796","100"
"122116","13:02:54","10","10","incompatibletest2","5","attributeB","19","23","0","1669","8","Hurt","1.5913130713660410542","1.4876189899282328266","1.5394660306471368294","97.4358974358974307961"
"122116","13:02:54","10","10","incompatibletest2","5","targetBleft","20","18","1","1191","1","bf14_nc.jpg","1.5913130713660410542","1.4978753323267928188","1.5445942018464169365","97.5"
"122116","13:02:54","10","10","incompatibletest2","5","attributeB","21","23","1","806","6","Horrible","1.5913130713660410542","1.51493929249435344","1.5531261819301973581","97.5609756097560989474"
"122116","13:02:54","10","10","incompatibletest2","5","targetBleft","22","18","0","2388","5","bm23_nc.jpg","1.5913130713660410542","1.3446732842059059276","1.4679931777859733799","95.2380952380952265912"
"122116","13:02:54","10","10","incompatibletest2","5","attributeB","23","23","1","1842","2","Agony","1.5913130713660410542","1.3319611880597677089","1.4616371297129044926","95.3488372093023315301"
"122116","13:02:54","10","10","incompatibletest2","5","targetAright","24","23","1","957","6","wm6_nc.jpg","1.5913130713660410542","1.3497267368956484823","1.4705199041308447683","95.4545454545454532536"
"122116","13:02:54","10","10","incompatibletest2","5","attributeA","25","18","1","733","5","Glorious","1.5913130713660410542","1.3577480103757986196","1.4745305408709197259","95.5555555555555571345"
"122116","13:02:54","10","10","incompatibletest2","5","targetAright","26","23","1","695","1","wf2_nc.jpg","1.5913130713660410542","1.3636199621067344179","1.477466516736387625","95.6521739130434838216"
"122116","13:02:54","10","10","incompatibletest2","5","attributeA","27","18","1","3209","2","Happy","1.5913130713660410542","1.2066288542186671684","1.3989709627923541113","95.7446808510638334155"
"122116","13:02:54","10","10","incompatibletest2","5","targetAright","28","23","1","885","3","wf6_nc.jpg","1.5913130713660410542","1.218089587687096742","1.4047013295265688981","95.8333333333333428072"
"122116","13:02:54","10","10","incompatibletest2","5","attributeA","29","18","1","840","6","Pleasure","1.5913130713660410542","1.2276595524385203184","1.4094863119022806863","95.9183673469387656496"
"122116","13:02:54","10","10","incompatibletest2","5","targetBleft","30","18","1","636","4","bm14_nc.jpg","1.5913130713660410542","1.2285101878838027289","1.4099116296249218916","96"
"122116","13:02:54","10","10","incompatibletest2","5","attributeA","31","18","1","1329","3","Laughter","1.5913130713660410542","1.2461315955199647743","1.4187223334430028032","96.0784313725490193292"
"122116","13:02:54","10","10","incompatibletest2","5","targetAright","32","23","1","577","5","wm4_nc.jpg","1.5913130713660410542","1.2438579367388735708","1.4175855040524574235","96.153846153846160405"
"122116","13:02:54","10","10","incompatibletest2","5","attributeB","33","23","1","472","7","Failure","1.5913130713660410542","1.2365698843573038612","1.4139414778616723467","96.2264150943396288085"
"122116","13:02:54","10","10","incompatibletest2","5","targetBleft","34","18","1","811","2","bf23_nc.jpg","1.5913130713660410542","1.2445217120076064177","1.417917391686823736","96.2962962962962905067"
"122116","13:02:54","10","10","incompatibletest2","5","attributeA","35","18","1","594","1","Joy","1.5913130713660410542","1.2440512539151720173","1.4176821626406064247","96.3636363636363597607"
"122116","13:02:54","10","10","incompatibletest2","5","targetAright","36","23","1","966","4","wm1_nc.jpg","1.5913130713660410542","1.2557673661132366938","1.423540218739638874","96.4285714285714306016"
"122116","13:02:54","10","10","incompatibletest2","5","attributeB","37","23","1","413","8","Hurt","1.5913130713660410542","1.2466295124071946621","1.4189712918866179692","96.4912280701754383472"
"122116","13:02:54","10","10","incompatibletest2","5","targetAright","38","23","1","531","2","wf3_nc.jpg","1.5913130713660410542","1.2440096929749668853","1.4176613821705039697","96.5517241379310320326"
"122116","13:02:54","10","10","incompatibletest2","5","attributeA","39","18","1","572","8","Wonderful","1.5913130713660410542","1.2435047615156442635","1.4174089164408427699","96.6101694915254256557"
"122116","13:02:54","10","10","incompatibletest2","5","targetAright","40","23","1","547","3","wf6_nc.jpg","1.5913130713660410542","1.2421903933920690477","1.416751732379055051","96.6666666666666714036"
"122116","13:02:54","10","10","targetcompatiblepractice","6","targetBright","2","23","1","1038","1","bf14_nc.jpg","1.5913130713660410542","1.2421903933920690477","1.416751732379055051","96.6666666666666714036"
"122116","13:02:54","10","10","targetcompatiblepractice","6","targetAleft","3","18","1","714","2","wf3_nc.jpg","1.5913130713660410542","1.2421903933920690477","1.416751732379055051","96.6666666666666714036"
"122116","13:02:54","10","10","targetcompatiblepractice","6","targetAleft","4","18","1","779","1","wf2_nc.jpg","1.5913130713660410542","1.2421903933920690477","1.416751732379055051","96.6666666666666714036"
"122116","13:02:54","10","10","targetcompatiblepractice","6","targetAleft","5","18","1","482","5","wm4_nc.jpg","1.5913130713660410542","1.2421903933920690477","1.416751732379055051","96.6666666666666714036"
"122116","13:02:54","10","10","targetcompatiblepractice","6","targetAleft","6","18","1","500","4","wm1_nc.jpg","1.5913130713660410542","1.2421903933920690477","1.416751732379055051","96.6666666666666714036"
"122116","13:02:54","10","10","targetcompatiblepractice","6","targetBright","7","23","1","670","4","bm14_nc.jpg","1.5913130713660410542","1.2421903933920690477","1.416751732379055051","96.6666666666666714036"
"122116","13:02:54","10","10","targetcompatiblepractice","6","targetBright","8","23","1","465","3","bf56_nc.jpg","1.5913130713660410542","1.2421903933920690477","1.416751732379055051","96.6666666666666714036"
"122116","13:02:54","10","10","targetcompatiblepractice","6","targetAleft","9","18","1","596","6","wm6_nc.jpg","1.5913130713660410542","1.2421903933920690477","1.416751732379055051","96.6666666666666714036"
"122116","13:02:54","10","10","targetcompatiblepractice","6","targetBright","10","23","1","659","6","bm56_nc.jpg","1.5913130713660410542","1.2421903933920690477","1.416751732379055051","96.6666666666666714036"
"122116","13:02:54","10","10","targetcompatiblepractice","6","targetBright","11","23","1","693","5","bm23_nc.jpg","1.5913130713660410542","1.2421903933920690477","1.416751732379055051","96.6666666666666714036"
"122116","13:02:54","10","10","targetcompatiblepractice","6","targetAleft","12","18","1","679","5","wm4_nc.jpg","1.5913130713660410542","1.2421903933920690477","1.416751732379055051","96.6666666666666714036"
"122116","13:02:54","10","10","targetcompatiblepractice","6","targetBright","13","23","1","722","1","bf14_nc.jpg","1.5913130713660410542","1.2421903933920690477","1.416751732379055051","96.6666666666666714036"
"122116","13:02:54","10","10","targetcompatiblepractice","6","targetAleft","14","18","1","643","6","wm6_nc.jpg","1.5913130713660410542","1.2421903933920690477","1.416751732379055051","96.6666666666666714036"
"122116","13:02:54","10","10","targetcompatiblepractice","6","targetBright","15","23","1","567","4","bm14_nc.jpg","1.5913130713660410542","1.2421903933920690477","1.416751732379055051","96.6666666666666714036"
"122116","13:02:54","10","10","targetcompatiblepractice","6","targetAleft","16","18","1","678","1","wf2_nc.jpg","1.5913130713660410542","1.2421903933920690477","1.416751732379055051","96.6666666666666714036"
"122116","13:02:54","10","10","targetcompatiblepractice","6","targetBright","17","23","1","530","6","bm56_nc.jpg","1.5913130713660410542","1.2421903933920690477","1.416751732379055051","96.6666666666666714036"
"122116","13:02:54","10","10","targetcompatiblepractice","6","targetBright","18","23","1","987","5","bm23_nc.jpg","1.5913130713660410542","1.2421903933920690477","1.416751732379055051","96.6666666666666714036"
"122116","13:02:54","10","10","targetcompatiblepractice","6","targetBright","19","23","1","680","2","bf23_nc.jpg","1.5913130713660410542","1.2421903933920690477","1.416751732379055051","96.6666666666666714036"
"122116","13:02:54","10","10","targetcompatiblepractice","6","targetAleft","20","18","1","651","2","wf3_nc.jpg","1.5913130713660410542","1.2421903933920690477","1.416751732379055051","96.6666666666666714036"
"122116","13:02:54","10","10","targetcompatiblepractice","6","targetAleft","21","18","1","1262","3","wf6_nc.jpg","1.5913130713660410542","1.2421903933920690477","1.416751732379055051","96.6666666666666714036"
"122116","13:02:54","10","10","compatibletest1","7","attributeB","2","23","1","2446","2","Agony","-1.8469262121169756075","1.2421903933920690477","-0.3023679093624532799","96.7213114754098342019"
"122116","13:02:54","10","10","compatibletest1","7","targetAleft","3","18","1","1203","4","wm1_nc.jpg","-1.6361564999129931675","1.2421903933920690477","-0.1969830532604620599","96.774193548387103192"
"122116","13:02:54","10","10","compatibletest1","7","attributeA","4","18","1","1145","3","Laughter","-1.4736080743215547173","1.2421903933920690477","-0.1157088404647428348","96.8253968253968224644"
"122116","13:02:54","10","10","compatibletest1","7","targetAleft","5","18","1","762","3","wf6_nc.jpg","-1.211288557374857966","1.2421903933920690477","0.0154509180086055409","96.875"
"122116","13:02:54","10","10","compatibletest1","7","attributeA","6","18","1","713","4","Love","-0.98832727208823834","1.2421903933920690477","0.1269315606519153539","96.9230769230769197975"
"122116","13:02:54","10","10","compatibletest1","7","targetBright","7","23","1","1338","3","bf56_nc.jpg","-1.0261292861036617197","1.2421903933920690477","0.108030553644203664","96.9696969696969688357"
"122116","13:02:54","10","10","compatibletest1","7","attributeA","8","18","1","1723","1","Joy","-1.1228640766448256816","1.2421903933920690477","0.0596631583736216831","97.0149253731343321761"
"122116","13:02:54","10","10","compatibletest1","7","targetBright","9","23","1","803","5","bm23_nc.jpg","-1.0120203989330118777","1.2421903933920690477","0.115084997229528585","97.0588235294117680496"
"122116","13:02:54","10","10","compatibletest1","7","attributeB","10","23","1","777","5","Terrible","-0.9139965666515917908","1.2421903933920690477","0.1640969133702386284","97.1014492753623130739"
"122116","13:02:54","10","10","compatibletest1","7","targetBright","11","23","1","736","3","bf56_nc.jpg","-0.8220594267106527964","1.2421903933920690477","0.2100654833407081257","97.1428571428571387969"
"122116","13:02:54","10","10","compatibletest1","7","attributeB","12","23","1","1208","1","Evil","-0.8411392875419380077","1.2421903933920690477","0.20052555292506552","97.1830985915492959748"
"122116","13:02:54","10","10","compatibletest1","7","targetAleft","13","18","1","886","1","wf2_nc.jpg","-0.8007873948032975253","1.2421903933920690477","0.2207014992943857612","97.2222222222222143273"
"122116","13:02:54","10","10","compatibletest1","7","attributeA","14","18","1","1081","6","Pleasure","-0.8012943876826416068","1.2421903933920690477","0.2204480028547137205","97.2602739726027465395"
"122116","13:02:54","10","10","compatibletest1","7","targetAleft","15","18","1","691","5","wm4_nc.jpg","-0.7317885898988600868","1.2421903933920690477","0.2552009017466044805","97.2972972972973053629"
"122116","13:02:54","10","10","compatibletest1","7","attributeA","16","18","1","749","7","Peace","-0.6817707490158557704","1.2421903933920690477","0.2802098221881066387","97.3333333333333428072"
"122116","13:02:54","10","10","compatibletest1","7","targetAleft","17","18","1","1140","4","wm1_nc.jpg","-0.6980646455379238002","1.2421903933920690477","0.2720628739270726237","97.3684210526315752077"
"122116","13:02:54","10","10","compatibletest1","7","attributeB","18","23","0","1973","4","Nasty","-0.7708613385928756445","1.2421903933920690477","0.2356645273995967016","96.1038961038961048189"
"122116","13:02:54","10","10","compatibletest1","7","targetBright","19","23","1","3667","6","bm56_nc.jpg","-0.7722931760733563467","1.2421903933920690477","0.2349486086593563505","96.153846153846160405"
"122116","13:02:54","10","10","compatibletest1","7","attributeB","20","23","1","751","6","Horrible","-0.7343740706929601236","1.2421903933920690477","0.253908161349554462","96.2025316455696213325"
"122116","13:02:54","10","10","compatibletest1","7","targetBright","21","23","1","502","2","bf23_nc.jpg","-0.6744274179969264038","1.2421903933920690477","0.2838814876975713219","96.25"
"122116","13:02:54","10","10","compatibletest2","9","attributeA","1","18","1","846","2","Happy","-0.6744274179969264038","0.0852624295087860695","-0.294582494244070181","96.2962962962962905067"
"122116","13:02:54","10","10","compatibletest2","9","targetAleft","2","18","1","499","6","wm6_nc.jpg","-0.6744274179969264038","0.3955127386225699149","-0.1394573396871782445","96.3414634146341484211"
"122116","13:02:54","10","10","compatibletest2","9","attributeB","3","23","0","1028","3","Awful","-0.6744274179969264038","0.1876020645991779701","-0.2434126766988742308","95.1807228915662619784"
"122116","13:02:54","10","10","compatibletest2","9","targetBright","4","23","1","1192","1","bf14_nc.jpg","-0.6744274179969264038","0.0034382981777001131","-0.3354945599096131326","95.2380952380952265912"
"122116","13:02:54","10","10","compatibletest2","9","attributeB","5","23","1","983","7","Failure","-0.6744274179969264038","-0.03100828091519146","-0.3527178494560589406","95.2941176470588118264"
"122116","13:02:54","10","10","compatibletest2","9","targetBright","6","23","1","452","4","bm14_nc.jpg","-0.6744274179969264038","0.1126315052159538588","-0.2808979563904862586","95.3488372093023315301"
"122116","13:02:54","10","10","compatibletest2","9","attributeA","7","18","1","736","5","Glorious","-0.6744274179969264038","0.1401990799630914442","-0.2671141690169174798","95.4022988505747093768"
"122116","13:02:54","10","10","compatibletest2","9","targetBright","8","23","1","808","5","bm23_nc.jpg","-0.6744274179969264038","0.1444399343089696197","-0.264993741843978392","95.4545454545454532536"
"122116","13:02:54","10","10","compatibletest2","9","attributeB","9","23","1","718","8","Hurt","-0.6744274179969264038","0.16735231496193545","-0.253537551517495463","95.5056179775280895683"
"122116","13:02:54","10","10","compatibletest2","9","targetAleft","10","18","1","1222","2","wf3_nc.jpg","-0.6744274179969264038","0.0873657587613495962","-0.2935308296177884246","95.5555555555555571345"
"122116","13:02:54","10","10","compatibletest2","9","attributeA","11","18","1","412","5","Glorious","-0.6744274179969264038","0.1650499377901821219","-0.2546887401033721687","95.6043956043956058011"
"122116","13:02:54","10","10","compatibletest2","9","targetBright","12","23","1","593","1","bf14_nc.jpg","-0.6744274179969264038","0.2015312220426891121","-0.236448097977118632","95.6521739130434838216"
"122116","13:02:54","10","10","compatibletest2","9","attributeA","13","18","1","583","1","Joy","-0.6744274179969264038","0.2344776412757333117","-0.2199748883605965322","95.698924731182799519"
"122116","13:02:54","10","10","compatibletest2","9","targetAleft","14","18","1","1101","1","wf2_nc.jpg","-0.6744274179969264038","0.1898531043492831805","-0.2422871568238216256","95.7446808510638334155"
"122116","13:02:54","10","10","compatibletest2","9","attributeA","15","18","1","1424","7","Peace","-0.6744274179969264038","0.1063587437986493883","-0.2840343370991385008","95.7894736842105203323"
"122116","13:02:54","10","10","compatibletest2","9","targetAleft","16","18","1","572","6","wm6_nc.jpg","-0.6744274179969264038","0.1405451558103656406","-0.2669411310932803816","95.8333333333333428072"
"122116","13:02:54","10","10","compatibletest2","9","attributeA","17","18","1","467","2","Happy","-0.6744274179969264038","0.1831010530652095181","-0.2456631824658584429","95.8762886597938148725"
"122116","13:02:54","10","10","compatibletest2","9","targetBright","18","23","1","630","3","bf56_nc.jpg","-0.6744274179969264038","0.2037267412214430196","-0.2353503383877416921","95.9183673469387656496"
"122116","13:02:54","10","10","compatibletest2","9","attributeB","19","23","1","546","2","Agony","-0.6744274179969264038","0.231189191400720917","-0.2216191132981027434","95.9595959595959584476"
"122116","13:02:54","10","10","compatibletest2","9","targetBright","20","23","1","483","6","bm56_nc.jpg","-0.6744274179969264038","0.2623173135060776207","-0.2060550522454243916","96"
"122116","13:02:54","10","10","compatibletest2","9","attributeA","21","18","1","589","8","Wonderful","-0.6744274179969264038","0.2811101709032676199","-0.1966586235468293919","96.0396039603960360864"
"122116","13:02:54","10","10","compatibletest2","9","targetAleft","22","18","1","1019","2","wf3_nc.jpg","-0.6744274179969264038","0.258493678292917195","-0.2079668698520046044","96.0784313725490193292"
"122116","13:02:54","10","10","compatibletest2","9","attributeB","23","23","1","1505","3","Awful","-0.6744274179969264038","0.1909547917911223469","-0.2417363131029020284","96.1165048543689408689"
"122116","13:02:54","10","10","compatibletest2","9","targetAleft","24","18","1","762","3","wf6_nc.jpg","-0.6744274179969264038","0.1957487412237012558","-0.2393393383866125879","96.153846153846160405"
"122116","13:02:54","10","10","compatibletest2","9","attributeA","25","18","1","705","3","Laughter","-0.6744274179969264038","0.2049811165605281149","-0.2347231507181991583","96.1904761904761897995"
"122116","13:02:54","10","10","compatibletest2","9","targetBright","26","23","1","499","2","bf23_nc.jpg","-0.6744274179969264038","0.2295679639887747425","-0.2224297270040758168","96.2264150943396288085"
"122116","13:02:54","10","10","compatibletest2","9","attributeB","27","23","1","748","5","Terrible","-0.6744274179969264038","0.2340422951451178457","-0.2201925614259042652","96.2616822429906591196"
"122116","13:02:54","10","10","compatibletest2","9","targetAleft","28","18","1","1181","4","wm1_nc.jpg","-0.6744274179969264038","0.2047714065956103557","-0.2348280057006580379","96.2962962962962905067"
"122116","13:02:54","10","10","compatibletest2","9","attributeA","29","18","1","1067","6","Pleasure","-0.6744274179969264038","0.1860988728784199187","-0.2441642725592532426","96.3302752293577952969"
"122116","13:02:54","10","10","compatibletest2","9","targetBright","30","23","1","598","4","bm14_nc.jpg","-0.6744274179969264038","0.2019080004791708183","-0.2362597087588778066","96.3636363636363597607"
"122116","13:02:54","10","10","compatibletest2","9","attributeB","31","23","1","1197","6","Horrible","-0.6744274179969264038","0.1749619390079687475","-0.2497327394944788281","96.3963963963963976767"
"122116","13:02:54","10","10","compatibletest2","9","targetAleft","32","18","0","1514","5","wm4_nc.jpg","-0.6744274179969264038","0.126894786466248688","-0.2737663157653388302","95.5357142857142918047"
"122116","13:02:54","10","10","compatibletest2","9","attributeA","33","18","1","1132","4","Love","-0.6744274179969264038","0.1080944251454005189","-0.2831664964257629702","95.5752212389380559898"
"122116","13:02:54","10","10","compatibletest2","9","targetAleft","34","18","1","541","5","wm4_nc.jpg","-0.6744274179969264038","0.1275947336465750037","-0.2734163421751756862","95.6140350877193014867"
"122116","13:02:54","10","10","compatibletest2","9","attributeB","35","23","1","564","4","Nasty","-0.6744274179969264038","0.1447804788917947394","-0.26482346955256586","95.6521739130434838216"
"122116","13:02:54","10","10","compatibletest2","9","targetAleft","36","18","1","604","6","wm6_nc.jpg","-0.6744274179969264038","0.1588666206151453375","-0.2577803986908905332","95.6896551724137935935"
"122116","13:02:54","10","10","compatibletest2","9","attributeB","37","23","1","504","7","Failure","-0.6744274179969264038","0.1779135898795596304","-0.2482569140586833867","95.7264957264957274674"
"122116","13:02:54","10","10","compatibletest2","9","targetBright","38","23","1","882","1","bf14_nc.jpg","-0.6744274179969264038","0.1750046973923957416","-0.2497113603022653172","95.7627118644067820696"
"122116","13:02:54","10","10","compatibletest2","9","attributeB","39","23","1","2397","1","Evil","-0.6744274179969264038","0.0807633858978557689","-0.2968320160495352966","95.7983193277310931535"
"122116","13:02:54","10","10","compatibletest2","9","targetBright","40","23","1","620","2","bf23_nc.jpg","-0.6744274179969264038","0.0932509328141264693","-0.2905882425913999811","95.8333333333333428072"
"122116","17:58:35","13","13","targetcompatiblepractice","1","targetBright","2","23","1","1119","5","insect5.jpg","","","0","0"
"122116","17:58:35","13","13","targetcompatiblepractice","1","targetAleft","3","18","1","518","2","flower2.jpg","","","0","0"
"122116","17:58:35","13","13","targetcompatiblepractice","1","targetBright","4","23","1","548","4","insect4.jpg","","","0","0"
"122116","17:58:35","13","13","targetcompatiblepractice","1","targetBright","5","23","1","514","1","insect1.jpg","","","0","0"
"122116","17:58:35","13","13","targetcompatiblepractice","1","targetAleft","6","18","1","603","1","flower1.jpg","","","0","0"
"122116","17:58:35","13","13","targetcompatiblepractice","1","targetBright","7","23","1","533","2","insect2.jpg","","","0","0"
"122116","17:58:35","13","13","targetcompatiblepractice","1","targetBright","8","23","1","507","3","insect3.jpg","","","0","0"
"122116","17:58:35","13","13","targetcompatiblepractice","1","targetAleft","9","18","1","571","4","flower4.jpg","","","0","0"
"122116","17:58:35","13","13","targetcompatiblepractice","1","targetBright","10","23","1","550","6","insect6.jpg","","","0","0"
"122116","17:58:35","13","13","targetcompatiblepractice","1","targetBright","11","23","1","486","1","insect1.jpg","","","0","0"
"122116","17:58:35","13","13","targetcompatiblepractice","1","targetAleft","12","18","1","519","6","flower6.jpg","","","0","0"
"122116","17:58:35","13","13","targetcompatiblepractice","1","targetAleft","13","18","1","468","5","flower5.jpg","","","0","0"
"122116","17:58:35","13","13","targetcompatiblepractice","1","targetBright","14","23","1","487","6","insect6.jpg","","","0","0"
"122116","17:58:35","13","13","targetcompatiblepractice","1","targetAleft","15","18","1","550","3","flower3.jpg","","","0","0"
"122116","17:58:35","13","13","targetcompatiblepractice","1","targetBright","16","23","1","479","3","insect3.jpg","","","0","0"
"122116","17:58:35","13","13","targetcompatiblepractice","1","targetAleft","17","18","1","532","6","flower6.jpg","","","0","0"
"122116","17:58:35","13","13","targetcompatiblepractice","1","targetAleft","18","18","1","785","2","flower2.jpg","","","0","0"
"122116","17:58:35","13","13","targetcompatiblepractice","1","targetAleft","19","18","1","473","3","flower3.jpg","","","0","0"
"122116","17:58:35","13","13","targetcompatiblepractice","1","targetBright","20","23","1","558","5","insect5.jpg","","","0","0"
"122116","17:58:35","13","13","targetcompatiblepractice","1","targetAleft","21","18","1","679","4","flower4.jpg","","","0","0"
"122116","17:58:35","13","13","attributepractice","2","attributeA","2","18","1","1150","1","Joy","","","0","0"
"122116","17:58:35","13","13","attributepractice","2","attributeB","3","23","1","456","1","Evil","","","0","0"
"122116","17:58:35","13","13","attributepractice","2","attributeA","4","18","1","712","7","Peace","","","0","0"
"122116","17:58:35","13","13","attributepractice","2","attributeA","5","18","1","674","4","Love","","","0","0"
"122116","17:58:35","13","13","attributepractice","2","attributeB","6","23","1","523","4","Nasty","","","0","0"
"122116","17:58:35","13","13","attributepractice","2","attributeA","7","18","1","793","5","Glorious","","","0","0"
"122116","17:58:35","13","13","attributepractice","2","attributeB","8","23","1","736","8","Hurt","","","0","0"
"122116","17:58:35","13","13","attributepractice","2","attributeB","9","23","1","507","5","Terrible","","","0","0"
"122116","17:58:35","13","13","attributepractice","2","attributeA","10","18","1","535","2","Happy","","","0","0"
"122116","17:58:35","13","13","attributepractice","2","attributeB","11","23","1","573","3","Awful","","","0","0"
"122116","17:58:35","13","13","attributepractice","2","attributeA","12","18","1","586","8","Wonderful","","","0","0"
