"date","time","group","subject","blockcode","blocknum","trialcode","trialnum","response","correct","latency","stimulusnumber1","stimulusitem1","expressions.d","expressions.latdiff","expressions.percentcorrect"
"122116","13:21:40","14","14","practice_incompatibletest","1","attributeA","2","18","0","62919","4","Love","","0","0"
"122116","13:21:40","14","14","practice_incompatibletest","1","attributeA","3","18","1","475","7","Peace","","0","0"
"122116","13:21:40","14","14","practice_incompatibletest","1","attributeB","4","23","1","2877","2","Agony","","0","0"
"122116","13:21:40","14","14","practice_incompatibletest","1","attributeA","5","18","1","725","2","Happy","","0","0"
"122116","13:21:40","14","14","practice_incompatibletest","1","attributeB","6","23","1","469","5","Terrible","","0","0"
"122116","13:21:40","14","14","practice_incompatibletest","1","attributeB","7","23","0","27674","8","Hurt","","0","0"
"122116","13:21:40","14","14","practice_incompatibletest","1","attributeA","8","18","1","7574","5","Glorious","","0","0"
"122116","13:21:40","14","14","practice_incompatibletest","1","attributeA","9","18","0","1237","1","Joy","","0","0"
"122116","13:21:40","14","14","practice_incompatibletest","1","attributeB","10","23","1","319","4","Nasty","","0","0"
"122116","13:21:40","14","14","practice_incompatibletest","1","attributeB","11","23","1","104","3","Awful","","0","0"
"122116","13:21:40","14","14","incompatibletest","3","targetAright","1","23","1","1033","1","bf14_nc.jpg","","1033","100"
"122116","13:21:40","14","14","incompatibletest","3","attributeB","2","23","0","3845","6","Horrible","0.9266310361106911975","2439","50"
"122116","13:21:40","14","14","incompatibletest","3","attributeA","3","18","1","252","3","Laughter","0.79148885780787126","1710","66.6666666666666571928"
"122116","13:21:40","14","14","incompatibletest","3","targetAright","4","23","1","2128","6","bm56_nc.jpg","0.9668675794769275855","1814.5","75"
"122116","13:21:40","14","14","incompatibletest","3","attributeA","5","18","1","294","8","Wonderful","0.8729566765753704605","1510.4000000000000909495","80"
"122116","13:21:40","14","14","incompatibletest","3","targetAright","6","23","1","6265","5","bm23_nc.jpg","0.859218595775427918","2302.8333333333334849158","83.3333333333333428072"
"122116","13:21:40","14","14","incompatibletest","3","attributeA","7","18","1","813","6","Pleasure","0.8359096486226416101","2090","85.7142857142857081953"
"122116","13:21:40","14","14","incompatibletest","3","attributeB","8","23","1","714","7","Failure","0.8138515519013257427","1918","87.5"
"122116","13:21:40","14","14","incompatibletest","3","attributeA","9","18","1","579","1","Joy","0.7896702977717402483","1769.2222222222221716947","88.8888888888888857309"
"122116","13:21:40","14","14","incompatibletest","3","attributeB","10","23","1","514","1","Evil","0.7674295212113867448","1643.7000000000000454747","90"
"122116","13:21:40","14","14","incompatibletest","3","targetAright","11","23","1","427","3","bf56_nc.jpg","0.7450475092946068356","1533.0909090909090082278","90.9090909090909065071"
"122116","13:21:40","14","14","incompatibletest","3","attributeA","12","18","1","631","8","Wonderful","0.7373801674267889128","1457.9166666666667424579","91.6666666666666571928"
"122116","13:21:40","14","14","incompatibletest","3","attributeB","13","23","1","628","8","Hurt","0.7315654673541955866","1394.0769230769230944134","92.3076923076923065992"
"122116","13:21:40","14","14","incompatibletest","3","attributeA","14","18","1","496","2","Happy","0.7212607464657396772","1329.9285714285713311256","92.8571428571428612031"
"122116","13:21:40","14","14","incompatibletest","3","attributeA","15","18","1","498","5","Glorious","0.7128800873495285684","1274.4666666666666969832","93.3333333333333285964"
"122116","13:21:40","14","14","incompatibletest","3","targetAright","16","23","1","492","2","bf23_nc.jpg","0.7057245789691681814","1225.5625","93.75"
"122116","13:21:40","14","14","incompatibletest","3","attributeA","17","18","1","550","7","Peace","0.702155202756785557","1185.8235294117646390077","94.1176470588235218884"
"122116","13:21:40","14","14","incompatibletest","3","targetAright","18","23","1","477","4","bm14_nc.jpg","0.6965868022052716935","1146.4444444444443433895","94.4444444444444428655"
"122116","13:21:40","14","14","incompatibletest","3","targetAright","19","23","1","440","5","bm23_nc.jpg","0.6905202881333379894","1109.2631578947368780064","94.7368421052631504153"
"122116","13:21:40","14","14","incompatibletest","3","targetAright","20","23","1","419","6","bm56_nc.jpg","0.6845497583007438269","1074.75","95"
"122116","13:21:40","14","14","incompatibletest","3","attributeA","21","18","1","584","6","Pleasure","0.6851823969637680367","1051.3809523809522943338","95.2380952380952265912"
"122116","13:21:40","14","14","incompatibletest","3","attributeB","22","23","1","662","7","Failure","0.6886906830498835674","1033.6818181818182438292","95.4545454545454532536"
"122116","13:21:40","14","14","incompatibletest","3","attributeA","23","18","1","697","4","Love","0.6934306114047026348","1019.0434782608696195894","95.6521739130434838216"
"122116","13:21:40","14","14","incompatibletest","3","attributeA","24","18","1","475","3","Laughter","0.6912880909000103102","996.375","95.8333333333333428072"
"122116","13:21:40","14","14","incompatibletest","3","attributeB","25","23","1","549","6","Horrible","0.6918864942446001365","978.4800000000000181899","96"
"122116","13:21:40","14","14","incompatibletest","3","attributeB","26","23","1","429","1","Evil","0.6890113764481273773","957.3461538461538111733","96.153846153846160405"
"122116","13:21:40","14","14","incompatibletest","3","targetAright","27","23","0","906","4","bm14_nc.jpg","0.6997608946874229741","955.4444444444444570763","92.5925925925925952242"
"122116","13:21:40","14","14","incompatibletest","3","attributeA","28","18","1","482","1","Joy","0.6988855263133140205","938.5357142857143344372","92.8571428571428612031"
"122116","13:21:40","14","14","incompatibletest","3","targetAright","29","23","1","524","2","bf23_nc.jpg","0.6994850213493182256","924.2413793103448824695","93.1034482758620640652"
"122116","13:21:40","14","14","incompatibletest","3","attributeB","30","23","1","597","4","Nasty","0.7022680259587221752","913.3333333333333712289","93.3333333333333285964"
"122116","13:21:40","14","14","incompatibletest","3","attributeB","31","23","1","418","3","Awful","0.7001964646028600026","897.3548387096774376914","93.5483870967741921731"
"122116","13:21:40","14","14","incompatibletest","3","attributeA","32","18","1","439","4","Love","0.6989864640481255886","883.03125","93.75"
"122116","13:21:40","14","14","incompatibletest","3","targetAright","33","23","1","467","3","bf56_nc.jpg","0.698759063863819363","870.4242424242423794567","93.9393939393939376714"
"122116","13:21:40","14","14","incompatibletest","3","attributeA","34","18","1","573","5","Glorious","0.7014279456612773078","861.6764705882352473054","94.1176470588235218884"
"122116","13:21:40","14","14","incompatibletest","3","attributeB","35","23","1","564","5","Terrible","0.7039313044746653425","853.171428571428577925","94.2857142857142775938"
"122116","13:21:40","14","14","incompatibletest","3","attributeB","36","23","1","627","2","Agony","0.7079886568448175987","846.8888888888889141526","94.4444444444444428655"
"122116","13:21:40","14","14","incompatibletest","3","targetAright","37","23","1","743","1","bf14_nc.jpg","0.7146108608099519532","844.0810810810810380644","94.594594594594596515"
"122116","13:21:40","14","14","incompatibletest","3","targetAright","38","23","1","439","4","bm14_nc.jpg","0.7141252159955613354","833.4210526315789593355","94.7368421052631504153"
"122116","13:21:40","14","14","incompatibletest","3","attributeB","39","23","1","547","6","Horrible","0.7163767137719895262","826.0769230769230944134","94.8717948717948615922"
"122116","13:21:40","14","14","incompatibletest","3","attributeA","40","18","0","835","6","Pleasure","0.7246882044129678846","826.2999999999999545253","92.5"
"122116","13:21:40","14","14","incompatibletest","3","attributeA","41","18","1","462","8","Wonderful","0.7249533850363302223","817.4146341463414273676","92.6829268292682968422"
"122116","13:21:40","14","14","incompatibletest","3","attributeB","42","23","1","465","5","Terrible","0.7253918959170706504","809.0238095238095183959","92.8571428571428612031"
"122116","13:21:40","14","14","incompatibletest","3","attributeA","43","18","1","484","3","Laughter","0.7263578618935521147","801.4651162790697753735","93.0232558139534830843"
"122116","13:21:40","14","14","incompatibletest","3","attributeB","44","23","1","606","1","Evil","0.7300256317490049218","797.0227272727272520569","93.1818181818181727749"
"122116","13:21:40","14","14","incompatibletest","3","targetAright","45","23","1","499","1","bf14_nc.jpg","0.7314210238551954735","790.3999999999999772626","93.3333333333333285964"
"122116","13:21:40","14","14","incompatibletest","3","attributeA","46","18","1","525","7","Peace","0.7334264411078351698","784.6304347826087450812","93.478260869565218627"
"122116","13:21:40","14","14","incompatibletest","3","attributeB","47","23","0","829","2","Agony","0.7411774080793838149","785.5744680851063321825","91.4893617021276526202"
"122116","13:21:40","14","14","incompatibletest","3","attributeB","48","23","1","481","4","Nasty","0.7422348690412277072","779.2291666666666287711","91.6666666666666571928"
"122116","13:21:40","14","14","incompatibletest","3","targetAright","49","23","1","795","5","bm23_nc.jpg","0.7492561018517884808","779.5510204081632537054","91.8367346938775597209"
"122116","13:21:40","14","14","incompatibletest","3","attributeB","50","23","1","793","7","Failure","0.7561378260755090563","779.8200000000000500222","92"
"122116","13:21:40","14","14","incompatibletest","3","attributeA","51","18","1","470","2","Happy","0.7569512909102998899","773.7450980392156907328","92.1568627450980386584"
"122116","13:21:40","14","14","incompatibletest","3","attributeA","52","18","1","481","7","Peace","0.7580445397326373014","768.11538461538464162","92.3076923076923065992"
"122116","13:21:40","14","14","incompatibletest","3","attributeB","53","23","1","484","3","Awful","0.759243563970518065","762.7547169811321055022","92.4528301886792434061"
"122116","13:21:40","14","14","incompatibletest","3","attributeB","54","23","1","422","8","Hurt","0.7592281940906770998","756.4444444444444570763","92.5925925925925952242"
"122116","13:21:40","14","14","incompatibletest","3","attributeA","55","18","1","514","4","Love","0.7611010042189059188","752.0363636363636032911","92.7272727272727195214"
"122116","13:21:40","14","14","incompatibletest","3","attributeA","56","18","0","1219","2","Happy","0.7727430212575298052","760.375","91.0714285714285693984"
"122116","13:21:40","14","14","incompatibletest","3","attributeA","57","18","1","630","8","Wonderful","0.7765764172376214969","758.0877192982455881065","91.2280701754385887625"
"122116","13:21:40","14","14","incompatibletest","3","attributeA","58","18","1","651","1","Joy","0.7807348625909305007","756.2413793103448824695","91.379310344827587187"
"122116","13:21:40","14","14","incompatibletest","3","attributeA","59","18","1","566","5","Glorious","0.783414041270996897","753.0169491525423381972","91.5254237288135641393"
"122116","13:21:40","14","14","incompatibletest","3","attributeA","60","18","1","557","3","Laughter","0.7859345380292364069","749.75","91.6666666666666571928"
"122116","13:21:40","14","14","incompatibletest","3","attributeB","61","23","1","484","6","Horrible","0.78715089706871888","745.3934426229508289907","91.8032786885245855046"
"122116","13:21:40","14","14","incompatibletest","3","targetAright","62","23","1","470","3","bf56_nc.jpg","0.7881398295711664614","740.9516129032258504594","91.9354838709677437691"
"122116","13:21:40","14","14","incompatibletest","3","attributeA","63","18","1","616","6","Pleasure","0.791666132852500426","738.9682539682539754722","92.0634920634920632665"
"122116","13:21:40","14","14","incompatibletest","3","attributeA","64","18","1","541","2","Happy","0.7939345832700194228","735.875","92.1875"
"122116","13:21:40","14","14","incompatibletest","3","targetAright","65","23","1","493","2","bf23_nc.jpg","0.7953814384072085408","732.138461538461569944","92.3076923076923065992"
"122116","13:21:40","14","14","incompatibletest","3","attributeA","66","18","1","519","8","Wonderful","0.7972942603229403735","728.9090909090908780854","92.4242424242424220893"
"122116","13:21:40","14","14","incompatibletest","3","targetAright","67","23","1","495","6","bm56_nc.jpg","0.7988087367341755174","725.4179104477611872426","92.5373134328358162293"
"122116","13:21:40","14","14","incompatibletest","3","targetAright","68","23","1","521","3","bf56_nc.jpg","0.8007762996244252029","722.4117647058823195039","92.647058823529420124"
"122116","13:21:40","14","14","incompatibletest","3","attributeA","69","18","1","505","5","Glorious","0.8024855478218062554","719.2608695652173764756","92.7536231884057968955"
"122116","13:21:40","14","14","incompatibletest","3","targetAright","70","23","1","570","1","bf14_nc.jpg","0.805248453997036262","717.1285714285713766003","92.8571428571428612031"
"122116","13:21:40","14","14","compatibletest","5","targetAleft","1","18","1","578","5","bm23_nc.jpg","0.1714996926772058561","139.1285714285713766003","92.9577464788732328316"
"122116","13:21:40","14","14","compatibletest","5","attributeB","2","23","1","1009","2","Agony","-0.0949611613500985358","-76.3714285714286233997","93.0555555555555571345"
"122116","13:21:40","14","14","compatibletest","5","attributeB","3","23","1","261","3","Awful","0.1262553601819533244","101.1285714285713766003","93.1506849315068450323"
"122116","13:21:40","14","14","compatibletest","5","attributeB","4","23","0","2737","1","Evil","-0.5046335331154969683","-429.1214285714286233997","91.8918918918919018779"
"122116","13:21:40","14","14","compatibletest","5","attributeA","5","18","1","693","1","Joy","-0.404968382074998412","-338.4714285714285324502","92"
"122116","13:21:40","14","14","compatibletest","5","targetAleft","6","18","1","263","2","bf23_nc.jpg","-0.2505623244216773626","-206.3714285714286233997","92.1052631578947398339"
"122116","13:21:40","14","14","compatibletest","5","attributeA","7","18","1","834","6","Pleasure","-0.2367888985909780142","-193.5857142857142889625","92.2077922077922096378"
"122116","13:21:40","14","14","compatibletest","5","attributeB","8","23","0","598","7","Failure","-0.1905349455800263436","-154.4964285714286233997","91.0256410256410219972"
"122116","13:21:40","14","14","compatibletest","5","targetAleft","9","18","1","1043","4","bm14_nc.jpg","-0.2150736852579870906","-173.5380952380952521708","91.1392405063291164424"
"122116","13:21:40","14","14","compatibletest","5","attributeB","10","23","0","822","8","Hurt","-0.2079549924479306977","-166.671428571428577925","90"
"122116","13:21:40","14","14","compatibletest","5","attributeA","11","18","1","138","7","Peace","-0.1239589794309579468","-98.8714285714286233997","90.123456790123455562"
"122116","13:21:40","14","14","compatibletest","5","attributeB","12","23","0","11347","5","Terrible","-0.1239589794309579468","-98.8714285714286233997","89.0243902439024452633"
"122116","13:21:40","14","14","compatibletest","5","targetAleft","13","18","0","2390","6","bm56_nc.jpg","-0.2815999938605870945","-230.0380952380952521708","87.9518072289156549459"
"122116","13:21:40","14","14","compatibletest","5","attributeB","14","23","0","2833","4","Nasty","-0.4415744896700649624","-375.1021978021979066398","86.9047619047619122057"
"122116","13:21:40","14","14","compatibletest","5","attributeB","15","23","1","5010","3","Awful","-0.6691564088630610474","-654.9428571428572922741","87.0588235294117680496"
"122116","13:21:40","14","14","compatibletest","5","attributeB","16","23","1","578","1","Evil","-0.6215773449930660499","-602.0047619047620628407","87.2093023255813903916"
"122116","13:21:40","14","14","compatibletest","5","attributeA","17","18","1","505","4","Love","-0.5744233758155802283","-551.1214285714286233997","87.3563218390804649971"
"122116","13:21:40","14","14","compatibletest","5","attributeB","18","23","1","554","2","Agony","-0.5351579842457317993","-509.1067226890756955981","87.5"
"122116","13:21:40","14","14","compatibletest","5","targetAleft","19","18","1","505","4","bm14_nc.jpg","-0.4968754937938646421","-469.0380952380953658576","87.6404494382022534182"
"122116","13:21:40","14","14","compatibletest","5","attributeB","20","23","1","474","8","Hurt","-0.4604290199435487341","-431.5556390977444607415","87.7777777777777714618"
"122116","13:21:40","14","14","compatibletest","5","targetAleft","21","18","1","429","3","bf56_nc.jpg","-0.4247886872311315565","-395.5714285714286688744","87.9120879120879124002"
"122116","13:21:40","14","14","compatibletest","5","attributeB","22","23","1","513","6","Horrible","-0.3966227922384336635","-367.0142857142857337749","88.0434782608695627459"
"122116","13:21:40","14","14","compatibletest","5","attributeA","23","18","1","514","3","Laughter","-0.3708467045913507731","-341.0987012987013713428","88.1720430107526880192"
"122116","13:21:40","14","14","compatibletest","5","targetAleft","24","18","1","412","6","bm56_nc.jpg","-0.3421613727496848889","-313.0018633540373684809","88.2978723404255276819"
"122116","13:21:40","14","14","compatibletest","5","attributeA","25","18","1","409","4","Love","-0.3155112073435029085","-287.1214285714286233997","88.4210526315789451246"
"122116","13:21:40","14","14","compatibletest","5","attributeB","26","23","1","502","7","Failure","-0.2950112780980032046","-267.0314285714285915674","88.5416666666666571928"
"122116","13:21:40","14","14","compatibletest","5","targetAleft","27","18","1","600","2","bf23_nc.jpg","-0.2802105910178468995","-252.2560439560439817797","88.6597938144329873467"
"122116","13:21:40","14","14","compatibletest","5","attributeB","28","23","1","541","5","Terrible","-0.263956743375987124","-236.389947089947099812","88.7755102040816268527"
"122116","13:21:40","14","14","compatibletest","5","attributeB","29","23","1","541","4","Nasty","-0.2487710503855118938","-221.6571428571429578369","88.8888888888888857309"
"122116","13:21:40","14","14","compatibletest","5","attributeA","30","18","1","581","5","Glorious","-0.2361257357751775365","-209.3197044334975771562","89"
"122116","13:21:40","14","14","compatibletest","5","attributeB","31","23","0","883","2","Agony","-0.2356889013970389912","-207.8714285714286233997","88.1188118811881224701"
"122116","13:21:40","14","14","compatibletest","5","attributeA","32","18","0","1172","1","Joy","-0.2457084716179067096","-215.839170506912523706","87.2549019607843092672"
"122116","13:21:40","14","14","compatibletest","5","attributeA","33","18","1","521","6","Pleasure","-0.2321472647687097823","-202.9651785714286233997","87.3786407766990294022"
"122116","13:21:40","14","14","compatibletest","5","attributeA","34","18","1","506","8","Wonderful","-0.2188002416512126458","-190.4168831168831275136","87.5"
"122116","13:21:40","14","14","compatibletest","5","attributeB","35","23","1","659","6","Horrible","-0.2114319918543930699","-183.1067226890756955981","87.619047619047620401"
"122116","13:21:40","14","14","compatibletest","5","attributeB","36","23","1","710","3","Awful","-0.2061599854615349392","-177.671428571428577925","87.7358490566037829694"
"122116","13:21:40","14","14","compatibletest","5","targetAleft","37","18","1","535","5","bm23_nc.jpg","-0.1954426640339999577","-167.6769841269841663234","87.8504672897196314807"
"122116","13:21:40","14","14","compatibletest","5","attributeB","38","23","1","583","1","Evil","-0.1867890448573394646","-159.5200772200772689757","87.9629629629629619103"
"122116","13:21:40","14","14","compatibletest","5","targetAleft","39","18","1","557","1","bf14_nc.jpg","-0.1777313819887616497","-151.1082706766917453933","88.0733944954128560312"
"122116","13:21:40","14","14","compatibletest","5","attributeA","40","18","1","444","2","Happy","-0.1656045680336305503","-140.2304029304029882042","88.1818181818181869858"
"122116","13:21:40","14","14","compatibletest","5","attributeB","41","23","1","576","8","Hurt","-0.1579945805814865489","-133.1964285714286688744","88.2882882882882853437"
"122116","13:21:40","14","14","compatibletest","5","targetAleft","42","18","1","471","6","bm56_nc.jpg","-0.1476180820462414944","-123.9445993031359876113","88.3928571428571387969"
"122116","13:21:40","14","14","compatibletest","5","attributeA","43","18","1","489","3","Laughter","-0.1381973454050322292","-115.5619047619047705666","88.495575221238937047"
"122116","13:21:40","14","14","compatibletest","5","attributeA","44","18","1","459","7","Peace","-0.1283087035183608504","-106.8714285714286233997","88.596491228070178181"
"122116","13:21:40","14","14","compatibletest","5","attributeB","45","23","1","662","4","Nasty","-0.1244350223582934012","-103.1896103896104932574","88.6956521739130465676"
"122116","13:21:40","14","14","compatibletest","5","targetAleft","46","18","1","561","5","bm23_nc.jpg","-0.1179779500764767813","-97.4269841269841663234","88.7931034482758718696"
"122116","13:21:40","14","14","compatibletest","5","attributeA","47","18","1","648","7","Peace","-0.1140836313739785335","-93.8062111801242508591","88.8888888888888857309"
"122116","13:21:40","14","14","compatibletest","5","attributeB","48","23","1","492","5","Terrible","-0.1062450852613919111","-87.0203647416414014515","88.9830508474576191702"
"122116","13:21:40","14","14","compatibletest","5","attributeA","49","18","1","518","5","Glorious","-0.099358784471197184","-81.0589285714286233997","89.0756302521008507256"
"122116","13:21:40","14","14","compatibletest","5","attributeB","50","23","1","607","7","Failure","-0.0949678073317318239","-77.1571428571429578369","89.1666666666666714036"
"122116","13:21:40","14","14","compatibletest","5","attributeB","51","23","1","516","3","Awful","-0.0884600821216925265","-71.5914285714286506845","89.2561983471074427143"
"122116","13:21:40","14","14","compatibletest","5","targetAleft","52","18","1","501","2","bf23_nc.jpg","-0.0817999627321467637","-65.9498599439776853615","89.344262295081961156"
"122116","13:21:40","14","14","compatibletest","5","targetAleft","53","18","1","510","1","bf14_nc.jpg","-0.0755732462084021811","-60.6983516483517178131","89.4308943089430812279"
"122116","13:21:40","14","14","compatibletest","5","attributeB","54","23","1","775","4","Nasty","-0.0758178520841902293","-60.6450134770890372238","89.5161290322580640577"
"122116","13:21:40","14","14","compatibletest","5","targetAleft","55","18","1","501","3","bf56_nc.jpg","-0.0696682424847481219","-55.5195767195767757585","89.6000000000000085265"
"122116","13:21:40","14","14","compatibletest","5","attributeB","56","23","1","623","5","Terrible","-0.0665169882263679235","-52.7987012987013031307","89.6825396825396836675"
"122116","13:21:40","14","14","compatibletest","5","attributeA","57","18","1","619","3","Laughter","-0.0633698020560622827","-50.1035714285715130245","89.763779527559051985"
"122116","13:21:40","14","14","compatibletest","5","attributeB","58","23","1","519","1","Evil","-0.0580749498384150881","-45.7486215538847318385","89.84375"
"122116","13:21:40","14","14","compatibletest","5","attributeA","59","18","1","456","4","Love","-0.0515359252956185468","-40.4576354679803671388","89.9224806201550421747"
"122116","13:21:40","14","14","compatibletest","5","targetAleft","60","18","1","499","4","bm14_nc.jpg","-0.0461172517624645964","-36.0748184019371365139","90"
"122116","13:21:40","14","14","compatibletest","5","targetAleft","61","18","1","469","5","bm23_nc.jpg","-0.0402003175859168838","-31.3380952380953203829","90.0763358778625899959"
"122116","13:21:40","14","14","compatibletest","5","targetAleft","62","18","1","439","6","bm56_nc.jpg","-0.0338044605461489608","-26.2648711943794523904","90.1515151515151558215"
"122116","13:21:40","14","14","compatibletest","5","attributeB","63","23","1","459","8","Hurt","-0.0279949070319402103","-21.6778801843317978637","90.2255639097744364108"
"122116","13:21:40","14","14","compatibletest","5","attributeA","64","18","1","606","1","Joy","-0.0253664986943569863","-19.5698412698412766986","90.2985074626865724667"
"122116","13:21:40","14","14","compatibletest","5","attributeB","65","23","1","844","7","Failure","-0.0276414036092884376","-21.2464285714286233997","90.3703703703703666861"
"122116","13:21:40","14","14","compatibletest","5","targetAleft","66","18","1","583","1","bf14_nc.jpg","-0.0246203523821952527","-18.856043956044004517","90.4411764705882319504"
"122116","13:21:40","14","14","compatibletest","5","attributeB","67","23","1","629","2","Agony","-0.0225863056426347172","-17.2350649350649973712","90.5109489051094868728"
"122116","13:21:40","14","14","compatibletest","5","attributeA","68","18","1","497","8","Wonderful","-0.0180039961388135696","-13.6923240938166372871","90.5797101449275317009"
"122116","13:21:40","14","14","compatibletest","5","attributeA","69","18","1","443","2","Happy","-0.012477921842416308","-9.4596638655463038958","90.6474820143884869594"
"122116","13:21:40","14","14","compatibletest","5","targetAleft","70","18","1","415","3","bf56_nc.jpg","-0.0065411977088583404","-4.943892339544618153","90.7142857142857081953"
"122116","18:15:24","12","12","practice_incompatibletest","1","attributeB","2","23","1","601","1","Evil","","0","0"
"122116","18:15:24","12","12","practice_incompatibletest","1","attributeA","3","18","1","500","6","Pleasure","","0","0"
"122116","18:15:24","12","12","practice_incompatibletest","1","attributeA","4","18","1","407","2","Happy","","0","0"
"122116","18:15:24","12","12","practice_incompatibletest","1","attributeA","5","18","1","452","5","Glorious","","0","0"
"122116","18:15:24","12","12","practice_incompatibletest","1","attributeA","6","18","1","384","4","Love","","0","0"
"122116","18:15:24","12","12","practice_incompatibletest","1","attributeB","7","23","0","614","5","Terrible","","0","0"
"122116","18:15:24","12","12","practice_incompatibletest","1","attributeB","8","23","1","587","4","Nasty","","0","0"
"122116","18:15:24","12","12","practice_incompatibletest","1","attributeB","9","23","1","546","6","Horrible","","0","0"
"122116","18:15:24","12","12","practice_incompatibletest","1","attributeB","10","23","1","529","3","Awful","","0","0"
"122116","18:15:24","12","12","practice_incompatibletest","1","attributeA","11","18","1","455","3","Laughter","","0","0"
"122116","18:15:24","12","12","incompatibletest","3","attributeA","1","18","1","537","7","Peace","","537","100"
"122116","18:15:24","12","12","incompatibletest","3","targetAright","2","23","1","1667","4","bm14_nc.jpg","0.9873775073635097099","1102","100"
"122116","18:15:24","12","12","incompatibletest","3","attributeA","3","18","1","593","8","Wonderful","1.0900552209367426748","932.3333333333333712289","100"
"122116","18:15:24","12","12","incompatibletest","3","attributeA","4","18","1","767","1","Joy","1.2104246640146671954","891","100"
"122116","18:15:24","12","12","incompatibletest","3","attributeA","5","18","1","1172","8","Wonderful","1.3341091198755516967","947.2000000000000454747","100"
"122116","18:15:24","12","12","incompatibletest","3","attributeB","6","23","1","740","2","Agony","1.3821754257587448578","912.6666666666666287711","100"
"122116","18:15:24","12","12","incompatibletest","3","attributeB","7","23","1","673","7","Failure","1.4095613564799052142","878.4285714285714448124","100"
"122116","18:15:24","12","12","incompatibletest","3","attributeB","8","23","1","713","8","Hurt","1.4424430182498608755","857.75","100"
"122116","18:15:24","12","12","incompatibletest","3","targetAright","9","23","1","512","1","bf14_nc.jpg","1.4315733933588228322","819.3333333333333712289","100"
"122116","18:15:24","12","12","incompatibletest","3","attributeB","10","23","1","464","4","Nasty","1.415491949733957977","783.7999999999999545253","100"
"122116","18:15:24","12","12","incompatibletest","3","attributeA","11","18","1","528","6","Pleasure","1.4187060004444582706","760.5454545454545041139","100"
"122116","18:15:24","12","12","incompatibletest","3","attributeB","12","23","1","491","3","Awful","1.4170870027661239821","738.0833333333333712289","100"
"122116","18:15:24","12","12","incompatibletest","3","attributeA","13","18","1","480","5","Glorious","1.4158934636330735568","718.2307692307692832401","100"
"122116","18:15:24","12","12","incompatibletest","3","attributeA","14","18","1","487","2","Happy","1.417828049902911669","701.7142857142856655628","100"
"122116","18:15:24","12","12","incompatibletest","3","targetAright","15","23","1","491","5","bm23_nc.jpg","1.4216470999397172736","687.6666666666666287711","100"
"122116","18:15:24","12","12","incompatibletest","3","attributeB","16","23","1","453","6","Horrible","1.4207686954113696309","673","100"
"122116","18:15:24","12","12","incompatibletest","3","attributeA","17","18","1","535","7","Peace","1.4316987029024066391","664.8823529411764639008","100"
"122116","18:15:24","12","12","incompatibletest","3","attributeB","18","23","1","460","8","Hurt","1.4334355123529221032","653.5","100"
"122116","18:15:24","12","12","incompatibletest","3","attributeA","19","18","1","490","1","Joy","1.4395622147368241084","644.8947368421053170096","100"
"122116","18:15:24","12","12","incompatibletest","3","attributeA","20","18","1","554","4","Love","1.4520757590756274702","640.3500000000000227374","100"
"122116","18:15:24","12","12","incompatibletest","3","targetAright","21","23","1","516","6","bm56_nc.jpg","1.4607606839175375502","634.4285714285714448124","100"
"122116","18:15:24","12","12","incompatibletest","3","attributeB","22","23","1","954","1","Evil","1.4735179158072120309","648.9545454545454958861","100"
"122116","18:15:24","12","12","incompatibletest","3","attributeA","23","18","1","505","3","Laughter","1.4794376870625982612","642.695652173913003935","100"
"122116","18:15:24","12","12","incompatibletest","3","attributeA","24","18","1","452","3","Laughter","1.4802849603693111202","634.75","100"
"122116","18:15:24","12","12","incompatibletest","3","targetAright","25","23","1","517","3","bf56_nc.jpg","1.4874560609363369768","630.0399999999999636202","100"
"122116","18:15:24","12","12","incompatibletest","3","attributeA","26","18","1","488","8","Wonderful","1.4921824624938511139","624.5769230769230944134","100"
"122116","18:15:24","12","12","incompatibletest","3","targetAright","27","23","1","567","2","bf23_nc.jpg","1.5024090096607867206","622.4444444444444570763","100"
"122116","18:15:24","12","12","incompatibletest","3","targetAright","28","23","1","458","5","bm23_nc.jpg","1.5044953407305052817","616.5714285714285551876","100"
"122116","18:15:24","12","12","incompatibletest","3","attributeA","29","18","1","503","4","Love","1.510330798471006819","612.6551724137931387304","100"
"122116","18:15:24","12","12","incompatibletest","3","attributeA","30","18","1","521","1","Joy","1.5172711734031134601","609.6000000000000227374","100"
"122116","18:15:24","12","12","incompatibletest","3","attributeA","31","18","1","503","7","Peace","1.522917949873131338","606.1612903225806121554","100"
"122116","18:15:24","12","12","incompatibletest","3","attributeB","32","23","1","610","2","Agony","1.5334620886837040388","606.28125","100"
"122116","18:15:24","12","12","incompatibletest","3","targetAright","33","23","1","445","2","bf23_nc.jpg","1.5346429951567199801","601.3939393939393767141","100"
"122116","18:15:24","12","12","incompatibletest","3","targetAright","34","23","1","549","6","bm56_nc.jpg","1.5423532613919326284","599.8529411764706082977","100"
"122116","18:15:24","12","12","incompatibletest","3","attributeA","35","18","1","524","2","Happy","1.5486338411687727845","597.6857142857143116998","100"
"122116","18:15:24","12","12","incompatibletest","3","targetAright","36","23","1","430","3","bf56_nc.jpg","1.5488274506254076091","593.0277777777778283053","100"
"122116","18:15:24","12","12","incompatibletest","3","targetAright","37","23","1","501","1","bf14_nc.jpg","1.5538076457654981244","590.5405405405405190322","100"
"122116","18:15:24","12","12","incompatibletest","3","targetAright","38","23","1","484","4","bm14_nc.jpg","1.5577801205144690133","587.7368421052631219936","100"
"122116","18:15:24","12","12","incompatibletest","3","attributeB","39","23","1","545","7","Failure","1.5645600962402788081","586.6410256410256351955","100"
"122116","18:15:24","12","12","incompatibletest","3","targetAright","40","23","1","522","2","bf23_nc.jpg","1.570221284909289361","585.0249999999999772626","100"
"122116","18:15:24","12","12","incompatibletest","3","attributeA","41","18","1","562","5","Glorious","1.5771819564911127021","584.4634146341463747376","100"
"122116","18:15:24","12","12","incompatibletest","3","attributeA","42","18","1","479","6","Pleasure","1.5805189819872549339","581.9523809523809632083","100"
"122116","18:15:24","12","12","incompatibletest","3","attributeB","43","23","1","490","5","Terrible","1.5843898355877354955","579.8139534883721353253","100"
"122116","18:15:24","12","12","incompatibletest","3","attributeB","44","23","1","562","3","Awful","1.590861122878966416","579.4090909090908780854","100"
"122116","18:15:24","12","12","incompatibletest","3","attributeB","45","23","1","581","4","Nasty","1.5975763704916363661","579.4444444444444570763","100"
"122116","18:15:24","12","12","incompatibletest","3","targetAright","46","23","1","408","5","bm23_nc.jpg","1.5965469523623951886","575.7173913043478705731","100"
"122116","18:15:24","12","12","incompatibletest","3","targetAright","47","23","1","451","6","bm56_nc.jpg","1.5982675227650204874","573.0638297872339990136","100"
"122116","18:15:24","12","12","incompatibletest","3","attributeA","48","18","1","441","8","Wonderful","1.5995043784728186775","570.3125","100"
"122116","18:15:24","12","12","incompatibletest","3","attributeA","49","18","1","368","4","Love","1.596212502047796189","566.1836734693877133395","100"
"122116","18:15:24","12","12","incompatibletest","3","attributeB","50","23","1","431","1","Evil","1.5971550971995209789","563.4800000000000181899","100"
"122116","18:15:24","12","12","incompatibletest","3","attributeB","51","23","1","553","5","Terrible","1.6027572167910721923","563.2745098039215463359","100"
"122116","18:15:24","12","12","incompatibletest","3","targetAright","52","23","1","401","3","bf56_nc.jpg","1.6020292908406505994","560.1538461538461888267","100"
"122116","18:15:24","12","12","incompatibletest","3","targetAright","53","23","1","438","4","bm14_nc.jpg","1.6034423361464209545","557.8490566037735334248","100"
"122116","18:15:24","12","12","incompatibletest","3","attributeA","54","18","1","571","5","Glorious","1.6090915154846043844","558.0925925925926094351","100"
"122116","18:15:24","12","12","incompatibletest","3","attributeA","55","18","1","506","6","Pleasure","1.6131154995420051712","557.1454545454545268512","100"
"122116","18:15:24","12","12","incompatibletest","3","attributeA","56","18","1","504","3","Laughter","1.6169994825033131569","556.1964285714285551876","100"
"122116","18:15:24","12","12","incompatibletest","3","targetAright","57","23","1","395","1","bf14_nc.jpg","1.6161318875844530307","553.3684210526315609968","100"
"122116","18:15:24","12","12","incompatibletest","3","attributeA","58","18","1","519","1","Joy","1.6203563004385208579","552.7758620689654662783","100"
"122116","18:15:24","12","12","incompatibletest","3","attributeA","59","18","1","483","2","Happy","1.6234529279135756497","551.5932203389830874585","100"
"122116","18:15:24","12","12","incompatibletest","3","attributeB","60","23","1","589","2","Agony","1.6286003620326761077","552.2166666666666969832","100"
"122116","18:15:24","12","12","incompatibletest","3","attributeB","61","23","1","440","8","Hurt","1.6299564569800331082","550.3770491803278446241","100"
"122116","18:15:24","12","12","incompatibletest","3","attributeA","62","18","1","548","7","Peace","1.6344243661274548973","550.3387096774193878446","100"
"122116","18:15:24","12","12","incompatibletest","3","attributeB","63","23","1","437","6","Horrible","1.6356277279473037112","548.5396825396825306598","100"
"122116","18:15:24","12","12","incompatibletest","3","attributeA","64","18","1","427","1","Joy","1.6364427206007150506","546.640625","100"
"122116","18:15:24","12","12","incompatibletest","3","attributeB","65","23","1","409","7","Failure","1.636506584048575963","544.523076923076928324","100"
"122116","18:15:24","12","12","incompatibletest","3","targetAright","66","23","1","407","5","bm23_nc.jpg","1.6365479531711699668","542.4393939393939945148","100"
"122116","18:15:24","12","12","incompatibletest","3","attributeA","67","18","1","409","3","Laughter","1.6367456717804793609","540.4477611940297947513","100"
"122116","18:15:24","12","12","incompatibletest","3","attributeA","68","18","0","849","5","Glorious","1.6347282878921371996","544.9852941176470721985","98.5294117647058840248"
"122116","18:15:24","12","12","incompatibletest","3","attributeB","69","23","1","471","7","Failure","1.6371141679351335352","543.9130434782608745081","98.5507246376811707478"
"122116","18:15:24","12","12","incompatibletest","3","targetAright","70","23","1","449","4","bm14_nc.jpg","1.6387797065180476075","542.5571428571428214127","98.5714285714285836093"
"122116","18:15:24","12","12","compatibletest","5","targetAleft","1","18","1","484","1","bf14_nc.jpg","0.3115734836649851625","58.5571428571428214127","98.5915492957746550928"
"122116","18:15:24","12","12","compatibletest","5","attributeA","2","18","1","394","4","Love","0.5402506172747628677","103.5571428571428214127","98.6111111111111142691"
"122116","18:15:24","12","12","compatibletest","5","attributeA","3","18","1","417","7","Peace","0.5790598335602152869","110.8904761904761357982","98.6301369863013661643"
"122116","18:15:24","12","12","compatibletest","5","attributeB","4","23","1","565","2","Agony","0.4157315303379428006","77.5571428571428214127","98.648648648648645576"
"122116","18:15:24","12","12","compatibletest","5","attributeB","5","23","1","552","5","Terrible","0.3270774159523909819","60.1571428571428441501","98.6666666666666714036"
"122116","18:15:24","12","12","compatibletest","5","attributeB","6","23","1","599","8","Hurt","0.2240305917943362368","40.7238095238095070272","98.6842105263157804984"
"122116","18:15:24","12","12","compatibletest","5","attributeB","7","23","1","503","1","Evil","0.2245891983139113868","40.5571428571428214127","98.7012987012986968693"
"122116","18:15:24","12","12","compatibletest","5","targetAleft","8","18","1","533","6","bm56_nc.jpg","0.2046523833831909167","36.6821428571428214127","98.7179487179487296089"
"122116","18:15:24","12","12","compatibletest","5","attributeA","9","18","1","453","8","Wonderful","0.2383879726126488519","42.5571428571428214127","98.7341772151898737775"
"122116","18:15:24","12","12","compatibletest","5","targetAleft","10","18","1","496","3","bf56_nc.jpg","0.242110130902948445","42.9571428571427986753","98.75"
"122116","18:15:24","12","12","compatibletest","5","attributeB","11","23","1","1096","6","Horrible","-0.0604524590566906037","-11.2610389610390484449","98.7654320987654301689"
"122116","18:15:24","12","12","compatibletest","5","targetAleft","12","18","1","418","2","bf23_nc.jpg","0.0003078761362428347","0.0571428571428214127","98.7804878048780494737"
"122116","18:15:24","12","12","compatibletest","5","attributeB","13","23","1","1296","4","Nasty","-0.2850383591895617741","-57.9043956043956313806","98.7951807228915583892"
"122116","18:15:24","12","12","compatibletest","5","attributeB","14","23","1","557","3","Awful","-0.2715875191953678325","-54.8000000000000682121","98.8095238095238102005"
"122116","18:15:24","12","12","compatibletest","5","attributeB","15","23","1","854","8","Hurt","-0.3529121103676858828","-71.9095238095238755704","98.823529411764710062"
"122116","18:15:24","12","12","compatibletest","5","targetAleft","16","18","1","490","4","bm14_nc.jpg","-0.3169173020531139695","-64.1303571428571785873","98.8372093023255757771"
"122116","18:15:24","12","12","compatibletest","5","attributeA","17","18","1","449","6","Pleasure","-0.2726520117547496236","-54.8546218487394980912","98.8505747126436773442"
"122116","18:15:24","12","12","compatibletest","5","attributeB","18","23","1","855","2","Agony","-0.3407951200252211654","-69.165079365079350282","98.8636363636363597607"
"122116","18:15:24","12","12","compatibletest","5","targetAleft","19","18","1","414","6","bm56_nc.jpg","-0.290829672730395894","-58.7586466165413412455","98.8764044943820152866"
"122116","18:15:24","12","12","compatibletest","5","attributeA","20","18","1","461","2","Happy","-0.2574794918411190681","-51.7428571428571331126","98.8888888888888857309"
"122116","18:15:24","12","12","compatibletest","5","targetAleft","21","18","1","414","3","bf56_nc.jpg","-0.2155666566054565136","-43.1571428571428441501","98.901098901098905003"
"122116","18:15:24","12","12","compatibletest","5","targetAleft","22","18","1","428","2","bf23_nc.jpg","-0.1804758594544743355","-35.9883116883116827012","98.9130434782608602973"
"122116","18:15:24","12","12","compatibletest","5","attributeA","23","18","1","494","1","Joy","-0.1628999536513586754","-32.3124223602484335061","98.924731182795696327"
"122116","18:15:24","12","12","compatibletest","5","attributeB","24","23","0","679","4","Nasty","-0.1853227919709468929","-36.6511904761905498162","97.8723404255319167078"
"122116","18:15:24","12","12","compatibletest","5","attributeB","25","23","1","612","3","Awful","-0.1928864734268009307","-37.9628571428571603974","97.894736842105274377"
"122116","18:15:24","12","12","compatibletest","5","attributeB","26","23","1","496","1","Evil","-0.177267259543478467","-34.7120879120878953472","97.9166666666666571928"
"122116","18:15:24","12","12","compatibletest","5","targetAleft","27","18","1","445","1","bf14_nc.jpg","-0.1528502125456090432","-29.8132275132275026408","97.9381443298969003308"
"122116","18:15:24","12","12","compatibletest","5","attributeB","28","23","1","565","6","Horrible","-0.1522899431707674112","-29.5500000000000682121","97.9591836734693828248"
"122116","18:15:24","12","12","compatibletest","5","targetAleft","29","18","1","558","5","bm23_nc.jpg","-0.1505591235675804718","-29.063546798029619822","97.9797979797979792238"
"122116","18:15:24","12","12","compatibletest","5","attributeA","30","18","1","493","3","Laughter","-0.1376321337771662934","-26.4428571428571785873","98"
"122116","18:15:24","12","12","compatibletest","5","attributeB","31","23","1","521","7","Failure","-0.1302186360398906173","-24.8944700460830290467","98.0198019801980251486"
"122116","18:15:24","12","12","compatibletest","5","attributeB","32","23","1","598","5","Terrible","-0.1358439249476113275","-25.8491071428571785873","98.0392156862745025592"
"122116","18:15:24","12","12","compatibletest","5","attributeB","33","23","1","581","5","Terrible","-0.1385144606118850208","-26.2307359307359320155","98.0582524271844704344"
"122116","18:15:24","12","12","compatibletest","5","targetAleft","34","18","1","473","4","bm14_nc.jpg","-0.1241497158386950794","-23.4134453781513229842","98.0769230769230659917"
"122116","18:15:24","12","12","compatibletest","5","attributeB","35","23","1","595","1","Evil","-0.1291350524649650389","-24.2428571428571331126","98.0952380952380877943"
"122116","18:15:24","12","12","compatibletest","5","attributeB","36","23","1","447","7","Failure","-0.1117890425908796143","-20.915079365079350282","98.1132075471698072988"
"122116","18:15:24","12","12","compatibletest","5","targetAleft","37","18","1","892","1","bf14_nc.jpg","-0.1575127101579117117","-29.7942084942085330113","98.1308411214953224544"
"122116","18:15:24","12","12","compatibletest","5","targetAleft","38","18","1","461","6","bm56_nc.jpg","-0.1425427407561444537","-26.8639097744361379227","98.1481481481481523588"
"122116","18:15:24","12","12","compatibletest","5","attributeA","39","18","1","431","7","Peace","-0.1240585098778127643","-23.3146520146520970229","98.1651376146788976484"
"122116","18:15:24","12","12","compatibletest","5","attributeB","40","23","1","587","2","Agony","-0.1274341403143079421","-23.8428571428571558499","98.1818181818181869858"
"122116","18:15:24","12","12","compatibletest","5","attributeA","41","18","1","537","8","Wonderful","-0.1241664215451154518","-23.1257839721254185861","98.1981981981981988383"
"122116","18:15:24","12","12","compatibletest","5","attributeA","42","18","1","460","5","Glorious","-0.1110423268220540188","-20.6095238095238073583","98.2142857142857081953"
"122116","18:15:24","12","12","compatibletest","5","attributeB","43","23","1","834","4","Nasty","-0.1441256644867618675","-26.9079734219269539608","98.2300884955752167116"
"122116","18:15:24","12","12","compatibletest","5","attributeB","44","23","0","1115","8","Hurt","-0.2034390074679351956","-39.3064935064935525588","97.3684210526315752077"
"122116","18:15:24","12","12","compatibletest","5","attributeB","45","23","1","463","3","Awful","-0.1904154400441467609","-36.665079365079350282","97.3913043478260931352"
"122116","18:15:24","12","12","compatibletest","5","targetAleft","46","18","1","485","3","bf56_nc.jpg","-0.1804624274563988717","-34.616770186335429571","97.4137931034482704717"
"122116","18:15:24","12","12","compatibletest","5","targetAleft","47","18","1","456","5","bm23_nc.jpg","-0.1675558367666890036","-32.0386018237082907945","97.4358974358974307961"
"122116","18:15:24","12","12","compatibletest","5","attributeB","48","23","1","654","6","Horrible","-0.1767644300870176433","-33.6928571428571785873","97.4576271186440692418"
"122116","18:15:24","12","12","compatibletest","5","attributeA","49","18","1","561","2","Happy","-0.1758807354008503354","-33.3816326530612741408","97.4789915966386502078"
"122116","18:15:24","12","12","compatibletest","5","attributeA","50","18","1","799","4","Love","-0.1988636279814679497","-37.8428571428571558499","97.5"
"122116","18:15:24","12","12","compatibletest","5","targetAleft","51","18","1","713","2","bf23_nc.jpg","-0.2128319180111757636","-40.4428571428571785873","97.5206611570247901"
"122116","18:15:24","12","12","compatibletest","5","targetAleft","52","18","1","544","5","bm23_nc.jpg","-0.2097519308884652767","-39.6928571428571785873","97.5409836065573756514"
"122116","18:15:24","12","12","compatibletest","5","attributeB","53","23","1","706","5","Terrible","-0.2224605368624859025","-42.0277628032345091924","97.5609756097560989474"
"122116","18:15:24","12","12","compatibletest","5","attributeA","54","18","1","616","6","Pleasure","-0.2263860353327904473","-42.6095238095238073583","97.5806451612903202886"
"122116","18:15:24","12","12","compatibletest","5","attributeB","55","23","1","849","1","Evil","-0.2505395992943484362","-47.4064935064935752962","97.5999999999999943157"
"122116","18:15:24","12","12","compatibletest","5","attributeA","56","18","1","405","3","Laughter","-0.233375116628241952","-44.1035714285715130245","97.619047619047620401"
"122116","18:15:24","12","12","compatibletest","5","attributeB","57","23","1","544","3","Awful","-0.2303255364034097197","-43.3551378446115904808","97.6377952755905482718"
"122116","18:15:24","12","12","compatibletest","5","attributeA","58","18","1","415","4","Love","-0.2150091620120935243","-40.4083743842364810916","97.65625"
"122116","18:15:24","12","12","compatibletest","5","targetAleft","59","18","1","392","2","bf23_nc.jpg","-0.1979437881432153101","-37.1716707021791989973","97.6744186046511515542"
"122116","18:15:24","12","12","compatibletest","5","targetAleft","60","18","1","447","4","bm14_nc.jpg","-0.186631735591786696","-34.9595238095238300957","97.6923076923076934008"
"122116","18:15:24","12","12","compatibletest","5","attributeA","61","18","0","1230","2","Happy","-0.2334161385554685275","-45.6559718969555206058","96.946564885496172792"
"122116","18:15:24","12","12","compatibletest","5","attributeB","62","23","1","1302","2","Agony","-0.2786374662970787508","-57.168663594470103817","96.9696969696969688357"
"122116","18:15:24","12","12","compatibletest","5","attributeA","63","18","1","603","8","Wonderful","-0.2799271956502527026","-57.2206349206350068926","96.9924812030075145231"
"122116","18:15:24","12","12","compatibletest","5","attributeB","64","23","1","806","8","Hurt","-0.2953294225462008149","-60.4428571428571785873","97.0149253731343321761"
"122116","18:15:24","12","12","compatibletest","5","targetAleft","65","18","1","444","6","bm56_nc.jpg","-0.2840323406012548735","-57.9967032967033446766","97.0370370370370380897"
"122116","18:15:24","12","12","compatibletest","5","attributeB","66","23","1","749","4","Nasty","-0.2953127544968086049","-60.2458874458874333868","97.0588235294117680496"
"122116","18:15:24","12","12","compatibletest","5","attributeB","67","23","1","722","6","Horrible","-0.3045520700333759767","-62.0249466950959913447","97.0802919708029179446"
"122116","18:15:24","12","12","compatibletest","5","attributeA","68","18","1","477","1","Joy","-0.2961848383593811973","-60.1487394957983951826","97.1014492753623130739"
"122116","18:15:24","12","12","compatibletest","5","attributeA","69","18","1","852","7","Peace","-0.3129746757237603094","-63.7616977225673053908","97.1223021582733707646"
"122116","18:15:24","12","12","compatibletest","5","attributeA","70","18","1","583","5","Glorious","-0.3124636352418177498","-63.4285714285714448124","97.1428571428571387969"
"122116","13:07:11","10","10","practice_incompatibletest","1","attributeB","2","23","1","1247","2","Agony","","0","0"
"122116","13:07:11","10","10","practice_incompatibletest","1","attributeA","3","18","1","508","3","Laughter","","0","0"
"122116","13:07:11","10","10","practice_incompatibletest","1","attributeA","4","18","1","726","4","Love","","0","0"
"122116","13:07:11","10","10","practice_incompatibletest","1","attributeA","5","18","1","616","8","Wonderful","","0","0"
"122116","13:07:11","10","10","practice_incompatibletest","1","attributeB","6","23","1","677","6","Horrible","","0","0"
"122116","13:07:11","10","10","practice_incompatibletest","1","attributeB","7","23","1","537","3","Awful","","0","0"
"122116","13:07:11","10","10","practice_incompatibletest","1","attributeB","8","23","1","474","4","Nasty","","0","0"
"122116","13:07:11","10","10","practice_incompatibletest","1","attributeA","9","18","1","573","1","Joy","","0","0"
"122116","13:07:11","10","10","practice_incompatibletest","1","attributeA","10","18","1","845","2","Happy","","0","0"
"122116","13:07:11","10","10","practice_incompatibletest","1","attributeB","11","23","1","641","7","Failure","","0","0"
"122116","13:07:11","10","10","incompatibletest","3","targetAright","1","23","1","835","3","bf56_nc.jpg","","835","100"
"122116","13:07:11","10","10","incompatibletest","3","targetAright","2","23","1","464","1","bf14_nc.jpg","1.2279975597717163183","649.5","100"
"122116","13:07:11","10","10","incompatibletest","3","attributeB","3","23","1","540","5","Terrible","1.4475902699580207589","613","100"
"122116","13:07:11","10","10","incompatibletest","3","attributeA","4","18","1","565","7","Peace","1.5697685791816224921","601","100"
"122116","13:07:11","10","10","incompatibletest","3","attributeA","5","18","1","1269","6","Pleasure","1.3944604346518640892","734.6000000000000227374","100"
"122116","13:07:11","10","10","incompatibletest","3","targetAright","6","23","1","617","2","bf23_nc.jpg","1.4511173672690200753","715","100"
"122116","13:07:11","10","10","incompatibletest","3","attributeB","7","23","1","622","8","Hurt","1.4982381284633470298","701.7142857142856655628","100"
"122116","13:07:11","10","10","incompatibletest","3","attributeA","8","18","1","1548","5","Glorious","1.3833272029934471359","807.5","100"
"122116","13:07:11","10","10","incompatibletest","3","attributeA","9","18","1","821","2","Happy","1.4318364710733766376","809","100"
"122116","13:07:11","10","10","incompatibletest","3","targetAright","10","23","1","546","5","bm23_nc.jpg","1.4356443832401903915","782.7000000000000454747","100"
"122116","13:07:11","10","10","incompatibletest","3","attributeA","11","18","1","939","6","Pleasure","1.4767243511279390944","796.9090909090908780854","100"
"122116","13:07:11","10","10","incompatibletest","3","attributeA","12","18","1","508","5","Glorious","1.4715275786769228539","772.8333333333333712289","100"
"122116","13:07:11","10","10","incompatibletest","3","attributeB","13","23","1","486","1","Evil","1.4653302747472032319","750.7692307692307167599","100"
"122116","13:07:11","10","10","incompatibletest","3","attributeB","14","23","1","449","5","Terrible","1.4553171788233021378","729.2142857142856655628","100"
"122116","13:07:11","10","10","incompatibletest","3","attributeB","15","23","1","557","3","Awful","1.4645801833069163056","717.7333333333333484916","100"
"122116","13:07:11","10","10","incompatibletest","3","attributeB","16","23","1","413","7","Failure","1.4526239725646161727","698.6875","100"
"122116","13:07:11","10","10","incompatibletest","3","targetAright","17","23","1","507","4","bm14_nc.jpg","1.4572343857296390368","687.4117647058823195039","100"
"122116","13:07:11","10","10","incompatibletest","3","attributeB","18","23","1","430","6","Horrible","1.4519608987044263504","673.1111111111110858474","100"
"122116","13:07:11","10","10","incompatibletest","3","targetAright","19","23","1","443","6","bm56_nc.jpg","1.4500715862415463064","661","100"
"122116","13:07:11","10","10","incompatibletest","3","attributeA","20","18","0","1024","4","Love","1.4626808913911020227","679.1499999999999772626","95"
"122116","13:07:11","10","10","incompatibletest","3","attributeA","21","18","1","1149","1","Joy","1.4653321667693446351","701.5238095238095183959","95.2380952380952265912"
"122116","13:07:11","10","10","incompatibletest","3","targetAright","22","23","1","717","2","bf23_nc.jpg","1.4823599737881705263","702.2272727272727479431","95.4545454545454532536"
"122116","13:07:11","10","10","incompatibletest","3","targetAright","23","23","1","383","3","bf56_nc.jpg","1.4702301774966617387","688.3478260869565019675","95.6521739130434838216"
"122116","13:07:11","10","10","incompatibletest","3","attributeB","24","23","1","661","2","Agony","1.4839905237554995576","687.2083333333333712289","95.8333333333333428072"
"122116","13:07:11","10","10","incompatibletest","3","attributeA","25","18","1","593","8","Wonderful","1.4933864797893572351","683.4400000000000545697","96"
"122116","13:07:11","10","10","incompatibletest","3","attributeA","26","18","1","608","3","Laughter","1.5033451694554142986","680.5384615384615472067","96.153846153846160405"
"122116","13:07:11","10","10","incompatibletest","3","attributeB","27","23","1","702","8","Hurt","1.5167301734231064536","681.3333333333333712289","96.2962962962962905067"
"122116","13:07:11","10","10","incompatibletest","3","attributeA","28","18","1","1273","7","Peace","1.5021056000422954302","702.4642857142856655628","96.4285714285714306016"
"122116","13:07:11","10","10","incompatibletest","3","attributeB","29","23","1","996","1","Evil","1.5124674078981894532","712.5862068965517437391","96.5517241379310320326"
"122116","13:07:11","10","10","incompatibletest","3","attributeB","30","23","1","563","4","Nasty","1.516863353180658347","707.6000000000000227374","96.6666666666666714036"
"122116","13:07:11","10","10","incompatibletest","3","attributeA","31","18","1","587","7","Peace","1.522690737666815064","703.7096774193548753829","96.774193548387103192"
"122116","13:07:11","10","10","incompatibletest","3","attributeA","32","18","1","474","5","Glorious","1.5208961682383850267","696.53125","96.875"
"122116","13:07:11","10","10","incompatibletest","3","attributeB","33","23","1","646","4","Nasty","1.5293969986312028198","695","96.9696969696969688357"
"122116","13:07:11","10","10","incompatibletest","3","attributeA","34","18","1","899","1","Joy","1.5396840818797292716","701","97.0588235294117680496"
"122116","13:07:11","10","10","incompatibletest","3","targetAright","35","23","1","597","4","bm14_nc.jpg","1.545298047991924717","698.0285714285714675498","97.1428571428571387969"
"122116","13:07:11","10","10","incompatibletest","3","attributeA","36","18","1","628","3","Laughter","1.5521015431026883302","696.0833333333333712289","97.2222222222222143273"
"122116","13:07:11","10","10","incompatibletest","3","attributeB","37","23","1","2377","6","Horrible","1.3721013805788135898","741.5135135135135442397","97.2972972972973053629"
"122116","13:07:11","10","10","incompatibletest","3","targetAright","38","23","1","3481","6","bm56_nc.jpg","1.1346601385126180439","813.6052631578946829904","97.3684210526315752077"
"122116","13:07:11","10","10","incompatibletest","3","attributeA","39","18","1","733","6","Pleasure","1.1428005750779595129","811.5384615384615472067","97.4358974358974307961"
"122116","13:07:11","10","10","incompatibletest","3","targetAright","40","23","1","654","5","bm23_nc.jpg","1.148379495247358939","807.6000000000000227374","97.5"
"122116","13:07:11","10","10","incompatibletest","3","attributeB","41","23","1","594","5","Terrible","1.1518815741569541355","802.390243902439010526","97.5609756097560989474"
"122116","13:07:11","10","10","incompatibletest","3","targetAright","42","23","1","473","1","bf14_nc.jpg","1.1507867683792167846","794.5476190476190367917","97.619047619047620401"
"122116","13:07:11","10","10","incompatibletest","3","attributeB","43","23","1","660","7","Failure","1.1565406212041897671","791.4186046511628092048","97.6744186046511515542"
"122116","13:07:11","10","10","incompatibletest","3","targetAright","44","23","1","456","3","bf56_nc.jpg","1.1550148727727813647","783.7954545454545041139","97.7272727272727337322"
"122116","13:07:11","10","10","incompatibletest","3","attributeA","45","18","1","629","2","Happy","1.1598340409672525109","780.3555555555556111358","97.7777777777777714618"
"122116","13:07:11","10","10","incompatibletest","3","targetAright","46","23","1","546","2","bf23_nc.jpg","1.1619377693227228576","775.2608695652173764756","97.8260869565217348054"
"122116","13:07:11","10","10","incompatibletest","3","attributeA","47","18","1","443","4","Love","1.1603032348803159479","768.1914893617021107275","97.8723404255319167078"
"122116","13:07:11","10","10","incompatibletest","3","attributeA","48","18","1","720","8","Wonderful","1.1675191600892254051","767.1875","97.9166666666666571928"
"122116","13:07:11","10","10","incompatibletest","3","attributeA","49","18","1","553","5","Glorious","1.1699806485303756443","762.8163265306122866605","97.9591836734693828248"
"122116","13:07:11","10","10","incompatibletest","3","attributeA","50","18","1","569","7","Peace","1.1729821766302299668","758.9400000000000545697","98"
"122116","13:07:11","10","10","incompatibletest","3","targetAright","51","23","1","537","6","bm56_nc.jpg","1.1749987766868341676","754.5882352941176804961","98.0392156862745025592"
"122116","13:07:11","10","10","incompatibletest","3","attributeB","52","23","1","402","1","Evil","1.1722856190455928083","747.8076923076922639666","98.0769230769230659917"
"122116","13:07:11","10","10","incompatibletest","3","attributeB","53","23","1","424","3","Awful","1.1706132803347704119","741.6981132075471805365","98.1132075471698072988"
"122116","13:07:11","10","10","incompatibletest","3","attributeA","54","18","0","909","6","Pleasure","1.1803470254042098819","744.7962962962963047175","96.2962962962962905067"
"122116","13:07:11","10","10","incompatibletest","3","attributeA","55","18","1","1015","8","Wonderful","1.1905394886589666381","749.7090909090909462975","96.3636363636363597607"
"122116","13:07:11","10","10","incompatibletest","3","attributeA","56","18","1","613","3","Laughter","1.1945994250472120601","747.2678571428571103752","96.4285714285714306016"
"122116","13:07:11","10","10","incompatibletest","3","attributeB","57","23","1","651","8","Hurt","1.1995472408599496816","745.5789473684210406645","96.4912280701754383472"
"122116","13:07:11","10","10","incompatibletest","3","targetAright","58","23","1","479","4","bm14_nc.jpg","1.1997107216746420999","740.9827586206896512522","96.5517241379310320326"
"122116","13:07:11","10","10","incompatibletest","3","targetAright","59","23","1","435","5","bm23_nc.jpg","1.1985167181887850241","735.7966101694914868858","96.6101694915254256557"
"122116","13:07:11","10","10","incompatibletest","3","attributeB","60","23","1","400","2","Agony","1.1962451335877490877","730.2000000000000454747","96.6666666666666714036"
"122116","13:07:11","10","10","incompatibletest","3","attributeA","61","18","1","582","1","Joy","1.1995771757155428983","727.7704918032786736148","96.7213114754098342019"
"122116","13:07:11","10","10","incompatibletest","3","attributeA","62","18","1","453","2","Happy","1.1992647528252060596","723.3387096774193878446","96.774193548387103192"
"122116","13:07:11","10","10","incompatibletest","3","attributeA","63","18","1","425","4","Love","1.1981506207984795598","718.6031746031745797154","96.8253968253968224644"
"122116","13:07:11","10","10","incompatibletest","3","targetAright","64","23","1","511","1","bf14_nc.jpg","1.1997137109219575546","715.359375","96.875"
"122116","13:07:11","10","10","incompatibletest","3","targetAright","65","23","1","489","3","bf56_nc.jpg","1.2006977191666023952","711.8769230769230489386","96.9230769230769197975"
"122116","13:07:11","10","10","incompatibletest","3","attributeA","66","18","1","684","1","Joy","1.206177045473638243","711.4545454545454958861","96.9696969696969688357"
"122116","13:07:11","10","10","incompatibletest","3","attributeA","67","18","1","559","8","Wonderful","1.2089881280756344939","709.1791044776119861126","97.0149253731343321761"
"122116","13:07:11","10","10","incompatibletest","3","targetAright","68","23","1","583","5","bm23_nc.jpg","1.2123460942277966002","707.3235294117647526946","97.0588235294117680496"
"122116","13:07:11","10","10","incompatibletest","3","attributeB","69","23","1","1046","3","Awful","1.2202868611888295636","712.2318840579710013117","97.1014492753623130739"
"122116","13:07:11","10","10","incompatibletest","3","attributeA","70","18","1","907","7","Peace","1.2278506210805941734","715.0142857142857337749","97.1428571428571387969"
"122116","13:07:11","10","10","compatibletest","5","attributeB","1","23","1","848","7","Failure","-0.2895533858233372282","-132.9857142857142662251","97.1830985915492959748"
"122116","13:07:11","10","10","compatibletest","5","attributeB","2","23","1","532","4","Nasty","0.0553274545444914154","25.0142857142857337749","97.2222222222222143273"
"122116","13:07:11","10","10","compatibletest","5","targetAleft","3","18","1","701","1","bf14_nc.jpg","0.047553444232526644","21.3476190476191050038","97.2602739726027465395"
"122116","13:07:11","10","10","compatibletest","5","attributeB","4","23","1","936","5","Terrible","-0.0878113230410255408","-39.2357142857142662251","97.2972972972973053629"
"122116","13:07:11","10","10","compatibletest","5","attributeB","5","23","1","424","1","Evil","0.0602720191077235345","26.8142857142856883002","97.3333333333333428072"
"122116","13:07:11","10","10","compatibletest","5","attributeA","6","18","1","662","4","Love","0.0705458041073868114","31.1809523809523625459","97.3684210526315752077"
"122116","13:07:11","10","10","compatibletest","5","attributeB","7","23","1","1434","6","Horrible","-0.1697582093495162703","-75.9857142857142662251","97.4025974025974079495"
"122116","13:07:11","10","10","compatibletest","5","targetAleft","8","18","1","903","6","bm56_nc.jpg","-0.2019711163733609594","-89.9857142857142662251","97.4358974358974307961"
"122116","13:07:11","10","10","compatibletest","5","targetAleft","9","18","1","601","2","bf23_nc.jpg","-0.152230685837549895","-67.3190476190476374541","97.468354430379747555"
"122116","13:07:11","10","10","compatibletest","5","targetAleft","10","18","1","447","4","bm14_nc.jpg","-0.0768020108432241333","-33.7857142857142207504","97.5"
"122116","13:07:11","10","10","compatibletest","5","attributeA","11","18","1","604","3","Laughter","-0.0471666005568487159","-20.6220779220778922536","97.5308641975308603378"
"122116","13:07:11","10","10","compatibletest","5","targetAleft","12","18","1","434","1","bf14_nc.jpg","0.0103639048370637952","4.5142857142857337749","97.5609756097560989474"
"122116","13:07:11","10","10","compatibletest","5","attributeA","13","18","1","647","2","Happy","0.0217071742484443025","9.3989010989010921548","97.5903614457831309892"
"122116","13:07:11","10","10","compatibletest","5","attributeA","14","18","1","468","5","Glorious","0.0611466942910185926","26.3714285714286233997","97.619047619047620401"
"122116","13:07:11","10","10","compatibletest","5","targetAleft","15","18","1","591","5","bm23_nc.jpg","0.0766551884837299025","32.8809523809524080207","97.6470588235294059132"
"122116","13:07:11","10","10","compatibletest","5","attributeB","16","23","0","1046","8","Hurt","0.0236988352491768334","10.1392857142857337749","96.511627906976755753"
"122116","13:07:11","10","10","compatibletest","5","attributeA","17","18","1","1354","6","Pleasure","-0.0650788114710038751","-28.0445378151259774313","96.5517241379310320326"
"122116","13:07:11","10","10","compatibletest","5","attributeB","18","23","1","755","2","Agony","-0.0670020263647504166","-28.7079365079364379199","96.5909090909090934929"
"122116","13:07:11","10","10","compatibletest","5","attributeA","19","18","1","611","7","Peace","-0.0509747981358124255","-21.7225563909773882187","96.6292134831460742816"
"122116","13:07:11","10","10","compatibletest","5","attributeB","20","23","1","601","4","Nasty","-0.0352339173761611613","-14.9357142857143116998","96.6666666666666714036"
"122116","13:07:11","10","10","compatibletest","5","attributeB","21","23","1","631","3","Awful","-0.0242484065306993457","-10.2238095238094501838","96.7032967032967007981"
"122116","13:07:11","10","10","compatibletest","5","attributeB","22","23","1","645","5","Terrible","-0.0156822452722623178","-6.5766233766233881397","96.7391304347826093135"
"122116","13:07:11","10","10","compatibletest","5","targetAleft","23","18","1","610","3","bf56_nc.jpg","-0.0041340858275050523","-1.7248447204968897495","96.774193548387103192"
"122116","13:07:11","10","10","compatibletest","5","attributeB","24","23","1","816","6","Horrible","-0.014118534083901544","-5.8607142857142662251","96.8085106382978750617"
"122116","13:07:11","10","10","compatibletest","5","attributeB","25","23","1","525","8","Hurt","0.0047762016730257331","1.9742857142857701547","96.8421052631578902492"
"122116","13:07:11","10","10","compatibletest","5","targetAleft","26","18","1","687","6","bm56_nc.jpg","0.007237146438705184","2.9758241758241865682","96.875"
"122116","13:07:11","10","10","compatibletest","5","attributeA","27","18","1","530","5","Glorious","0.0237329278786901458","9.7179894179894290573","96.9072164948453576017"
"122116","13:07:11","10","10","compatibletest","5","attributeB","28","23","1","603","1","Evil","0.0328124521810539693","13.3714285714286233997","96.9387755102040813426"
"122116","13:07:11","10","10","compatibletest","5","targetAleft","29","18","1","625","2","bf23_nc.jpg","0.0394905041024215808","16.0142857142857337749","96.9696969696969688357"
"122116","13:07:11","10","10","compatibletest","5","attributeA","30","18","1","639","1","Joy","0.0446412188546185251","18.0142857142857337749","97"
"122116","13:07:11","10","10","compatibletest","5","targetAleft","31","18","1","460","4","bm14_nc.jpg","0.0637827902686583792","25.6594470046082960835","97.0297029702970235121"
"122116","13:07:11","10","10","compatibletest","5","targetAleft","32","18","1","520","4","bm14_nc.jpg","0.0772370411764800036","30.9517857142857337749","97.0588235294117680496"
"122116","13:07:11","10","10","compatibletest","5","attributeA","33","18","1","625","4","Love","0.0820901198825537554","32.7415584415584817179","97.0873786407767056517"
"122116","13:07:11","10","10","compatibletest","5","attributeA","34","18","1","455","6","Pleasure","0.0991408461275250924","39.4260504201680532788","97.1153846153846131983"
"122116","13:07:11","10","10","compatibletest","5","attributeA","35","18","1","435","2","Happy","0.116731899657238028","46.3000000000000682121","97.1428571428571387969"
"122116","13:07:11","10","10","compatibletest","5","attributeA","36","18","1","456","3","Laughter","0.1320187003349999888","52.2087301587301908512","97.1698113207547180536"
"122116","13:07:11","10","10","compatibletest","5","attributeB","37","23","1","572","2","Agony","0.1388147984993935158","54.6629343629343793509","97.196261682242990787"
"122116","13:07:11","10","10","compatibletest","5","attributeA","38","18","1","515","8","Wonderful","0.1490777243672800623","58.487969924812091449","97.2222222222222143273"
"122116","13:07:11","10","10","compatibletest","5","attributeB","39","23","1","557","7","Failure","0.156218414461140237","61.0399267399267273504","97.2477064220183535781"
"122116","13:07:11","10","10","compatibletest","5","attributeA","40","18","1","526","1","Joy","0.1650261974866591708","64.2392857142857565123","97.2727272727272804786"
"122116","13:07:11","10","10","compatibletest","5","attributeB","41","23","1","639","2","Agony","0.1665115759680084184","64.5264808362369421957","97.2972972972973053629"
"122116","13:07:11","10","10","compatibletest","5","attributeB","42","23","1","1212","8","Hurt","0.1315573755802312284","51.1571428571428441501","97.3214285714285693984"
"122116","13:07:11","10","10","compatibletest","5","attributeA","43","18","1","634","5","Glorious","0.1339281468096552574","51.8514950166113521846","97.3451327433628250674"
"122116","13:07:11","10","10","compatibletest","5","attributeB","44","23","1","743","3","Awful","0.1298108669892037437","50.0370129870129858318","97.3684210526315752077"
"122116","13:07:11","10","10","compatibletest","5","attributeA","45","18","1","552","7","Peace","0.1368424396887353012","52.5476190476190367917","97.3913043478260931352"
"122116","13:07:11","10","10","compatibletest","5","attributeA","46","18","1","480","6","Pleasure","0.1476153753336894858","56.5142857142857337749","97.4137931034482704717"
"122116","13:07:11","10","10","compatibletest","5","attributeB","47","23","1","555","4","Nasty","0.1539473118689124176","58.7164133738601776713","97.4358974358974307961"
"122116","13:07:11","10","10","compatibletest","5","targetAleft","48","18","1","628","2","bf23_nc.jpg","0.1561446909081129486","59.3059523809523625459","97.4576271186440692418"
"122116","13:07:11","10","10","compatibletest","5","attributeB","49","23","1","1241","6","Horrible","0.1241345058529097767","47.3612244897959726586","97.4789915966386502078"
"122116","13:07:11","10","10","compatibletest","5","attributeB","50","23","1","630","5","Terrible","0.1266263829939212326","48.1142857142857565123","97.5"
"122116","13:07:11","10","10","compatibletest","5","targetAleft","51","18","1","588","5","bm23_nc.jpg","0.1312029311537221687","49.6613445378151254772","97.5206611570247901"
"122116","13:07:11","10","10","compatibletest","5","attributeA","52","18","1","731","4","Love","0.1283953055115225061","48.3989010989010921548","97.5409836065573756514"
"122116","13:07:11","10","10","compatibletest","5","attributeB","53","23","0","940","1","Evil","0.1149859938110499857","43.2407008086253199508","96.7479674796747985965"
"122116","13:07:11","10","10","compatibletest","5","targetAleft","54","18","1","1596","3","bf56_nc.jpg","0.0681899918637746405","26.1253968253968196223","96.774193548387103192"
"122116","13:07:11","10","10","compatibletest","5","targetAleft","55","18","1","523","6","bm56_nc.jpg","0.0763026265295306955","29.1415584415584589806","96.7999999999999971578"
"122116","13:07:11","10","10","compatibletest","5","attributeB","56","23","1","613","7","Failure","0.0800132332182844769","30.4428571428571785873","96.8253968253968224644"
"122116","13:07:11","10","10","compatibletest","5","attributeB","57","23","1","763","5","Terrible","0.0766940289810241205","29.0669172932331321135","96.8503937007873929588"
"122116","13:07:11","10","10","compatibletest","5","attributeB","58","23","1","443","1","Evil","0.0879321218467420118","33.2556650246306162444","96.875"
"122116","13:07:11","10","10","compatibletest","5","targetAleft","59","18","1","632","1","bf14_nc.jpg","0.0905050455058973025","34.0990314769976521347","96.8992248062015448795"
"122116","13:07:11","10","10","compatibletest","5","attributeA","60","18","1","525","8","Wonderful","0.0977008162319591283","36.6976190476190140544","96.9230769230769197975"
"122116","13:07:11","10","10","compatibletest","5","attributeB","61","23","0","815","3","Awful","0.0920560910877432359","34.4569086651054021786","96.1832061068702302009"
"122116","13:07:11","10","10","compatibletest","5","targetAleft","62","18","1","604","4","bm14_nc.jpg","0.0956976212755801248","35.6917050691243957772","96.2121212121212181501"
"122116","13:07:11","10","10","compatibletest","5","targetAleft","63","18","1","402","1","bf14_nc.jpg","0.1076528011921659284","40.0936507936507950944","96.2406015037593931538"
"122116","13:07:11","10","10","compatibletest","5","attributeB","64","23","1","584","4","Nasty","0.1118507421233143062","41.5142857142857337749","96.2686567164179081146"
"122116","13:07:11","10","10","compatibletest","5","attributeB","65","23","1","1271","8","Hurt","0.0866364632336948659","32.3219780219779977415","96.2962962962962905067"
"122116","13:07:11","10","10","compatibletest","5","attributeB","66","23","1","459","7","Failure","0.0959301976957689095","35.7112554112554789754","96.323529411764710062"
"122116","13:07:11","10","10","compatibletest","5","attributeB","67","23","1","487","6","Horrible","0.1039012183944484358","38.5814498933901859345","96.3503649635036509835"
"122116","13:07:11","10","10","compatibletest","5","attributeA","68","18","1","721","3","Laughter","0.1025093794842279332","37.9260504201680532788","96.3768115942028913423"
"122116","13:07:11","10","10","compatibletest","5","targetAleft","69","18","1","987","3","bf56_nc.jpg","0.0904965460682803924","33.4345755693582304957","96.4028776978417312193"
"122116","13:07:11","10","10","compatibletest","5","targetAleft","70","18","1","458","6","bm56_nc.jpg","0.0993490003380873149","36.6285714285714902871","96.4285714285714306016"
"122116","18:03:03","13","13","practice_compatibletest","1","attributeA","2","18","1","910","2","Happy","","0","0"
"122116","18:03:03","13","13","practice_compatibletest","1","attributeA","3","18","1","545","6","Pleasure","","0","0"
"122116","18:03:03","13","13","practice_compatibletest","1","attributeA","4","18","1","529","3","Laughter","","0","0"
"122116","18:03:03","13","13","practice_compatibletest","1","attributeA","5","18","1","528","1","Joy","","0","0"
"122116","18:03:03","13","13","practice_compatibletest","1","attributeA","6","18","1","514","5","Glorious","","0","0"
"122116","18:03:03","13","13","practice_compatibletest","1","attributeB","7","23","1","727","1","Evil","","0","0"
"122116","18:03:03","13","13","practice_compatibletest","1","attributeB","8","23","1","453","6","Horrible","","0","0"
"122116","18:03:03","13","13","practice_compatibletest","1","attributeB","9","23","1","425","5","Terrible","","0","0"
"122116","18:03:03","13","13","practice_compatibletest","1","attributeB","10","23","1","1013","7","Failure","","0","0"
"122116","18:03:03","13","13","practice_compatibletest","1","attributeB","11","23","1","455","8","Hurt","","0","0"
"122116","18:03:03","13","13","compatibletest","3","attributeB","1","23","1","899","4","Nasty","","-899","100"
"122116","18:03:03","13","13","compatibletest","3","attributeB","2","23","1","532","2","Agony","-1.2583369891836273524","-715.5","100"
"122116","18:03:03","13","13","compatibletest","3","attributeB","3","23","1","548","3","Awful","-1.4526812682636445206","-659.6666666666666287711","100"
"122116","18:03:03","13","13","compatibletest","3","targetAleft","4","18","1","758","6","bm56_nc.jpg","-1.5816158639021051791","-684.25","100"
"122116","18:03:03","13","13","compatibletest","3","attributeA","5","18","1","1052","8","Wonderful","-1.5807075005285871061","-757.7999999999999545253","100"
"122116","18:03:03","13","13","compatibletest","3","attributeA","6","18","1","655","4","Love","-1.6293703411393964942","-740.6666666666666287711","100"
"122116","18:03:03","13","13","compatibletest","3","attributeB","7","23","0","749","2","Agony","-1.6774863956378365248","-741.8571428571428896248","85.7142857142857081953"
"122116","18:03:03","13","13","compatibletest","3","attributeB","8","23","1","611","7","Failure","-1.6979065696728909973","-725.5","87.5"
"122116","18:03:03","13","13","compatibletest","3","attributeA","9","18","0","1441","7","Peace","-1.5570074445319099787","-805","77.7777777777777856727"
"122116","18:03:03","13","13","compatibletest","3","attributeA","10","18","1","527","7","Peace","-1.5509383088254344862","-777.2000000000000454747","80"
"122116","18:03:03","13","13","compatibletest","3","attributeA","11","18","1","420","4","Love","-1.5229788810678039912","-744.7272727272727479431","81.8181818181818272251"
"122116","18:03:03","13","13","compatibletest","3","targetAleft","12","18","1","566","3","bf56_nc.jpg","-1.5329976886375624723","-729.8333333333333712289","83.3333333333333428072"
"122116","18:03:03","13","13","compatibletest","3","attributeB","13","23","1","928","8","Hurt","-1.5604823971666847982","-745.0769230769230944134","84.6153846153846131983"
"122116","18:03:03","13","13","compatibletest","3","attributeA","14","18","1","690","2","Happy","-1.5810009941960694313","-741.1428571428571103752","85.7142857142857081953"
"122116","18:03:03","13","13","compatibletest","3","attributeB","15","23","1","870","4","Nasty","-1.6042633414178981699","-749.7333333333333484916","86.6666666666666714036"
"122116","18:03:03","13","13","compatibletest","3","targetAleft","16","18","1","600","1","bf14_nc.jpg","-1.6121969752076816818","-740.375","87.5"
"122116","18:03:03","13","13","compatibletest","3","attributeB","17","23","1","1046","1","Evil","-1.6207565355899828941","-758.3529411764706082977","88.2352941176470579876"
"122116","18:03:03","13","13","compatibletest","3","attributeB","18","23","0","975","6","Horrible","-1.6351031249489045294","-770.3888888888889141526","83.3333333333333428072"
"122116","18:03:03","13","13","compatibletest","3","attributeA","19","18","1","668","6","Pleasure","-1.6450022204809227055","-765","84.2105263157894654569"
"122116","18:03:03","13","13","compatibletest","3","attributeB","20","23","1","1075","5","Terrible","-1.6502359103394956819","-780.5","85"
"122116","18:03:03","13","13","compatibletest","3","attributeA","21","18","1","933","3","Laughter","-1.6636314344058868997","-787.7619047619048160414","85.7142857142857081953"
"122116","18:03:03","13","13","compatibletest","3","targetAleft","22","18","1","412","5","bm23_nc.jpg","-1.6416900530581295392","-770.6818181818181301423","86.3636363636363597607"
"122116","18:03:03","13","13","compatibletest","3","attributeB","23","23","1","604","3","Awful","-1.6448895624327533049","-763.4347826086956274594","86.9565217391304372541"
"122116","18:03:03","13","13","compatibletest","3","targetAleft","24","18","1","632","2","bf23_nc.jpg","-1.6503585432809502187","-757.9583333333333712289","87.5"
"122116","18:03:03","13","13","compatibletest","3","attributeB","25","23","1","653","5","Terrible","-1.6570696986377828619","-753.7599999999999909051","88"
"122116","18:03:03","13","13","compatibletest","3","targetAleft","26","18","1","475","4","bm14_nc.jpg","-1.6486225107843728299","-743.0384615384615472067","88.4615384615384527933"
"122116","18:03:03","13","13","compatibletest","3","attributeA","27","18","1","721","5","Glorious","-1.6582835386848988612","-742.2222222222221716947","88.8888888888888857309"
"122116","18:03:03","13","13","compatibletest","3","targetAleft","28","18","1","447","1","bf14_nc.jpg","-1.6480880774988411197","-731.6785714285714448124","89.2857142857142918047"
"122116","18:03:03","13","13","compatibletest","3","targetAleft","29","18","1","456","4","bm14_nc.jpg","-1.6401161881232182438","-722.1724137931034874782","89.6551724137931103087"
"122116","18:03:03","13","13","compatibletest","3","attributeA","30","18","1","539","1","Joy","-1.6404505062387930714","-716.0666666666667197205","90"
"122116","18:03:03","13","13","compatibletest","3","attributeB","31","23","1","569","1","Evil","-1.6431340034703565411","-711.3225806451613379977","90.3225806451612811543"
"122116","18:03:03","13","13","compatibletest","3","attributeA","32","18","1","600","8","Wonderful","-1.6476822128983068527","-707.84375","90.625"
"122116","18:03:03","13","13","compatibletest","3","attributeA","33","18","1","528","6","Pleasure","-1.647788172862568068","-702.3939393939393767141","90.9090909090909065071"
"122116","18:03:03","13","13","compatibletest","3","attributeB","34","23","1","754","8","Hurt","-1.6565556752350536485","-703.9117647058823195039","91.176470588235289938"
"122116","18:03:03","13","13","compatibletest","3","attributeB","35","23","1","627","3","Awful","-1.6619718478590255195","-701.7142857142856655628","91.4285714285714306016"
"122116","18:03:03","13","13","compatibletest","3","attributeA","36","18","1","604","2","Happy","-1.6662736629542218569","-699","91.6666666666666571928"
"122116","18:03:03","13","13","compatibletest","3","targetAleft","37","18","1","597","6","bm56_nc.jpg","-1.6701861119151575341","-696.2432432432432278802","91.8918918918919018779"
"122116","18:03:03","13","13","compatibletest","3","attributeB","38","23","1","668","6","Horrible","-1.6764581726225680214","-695.5","92.1052631578947398339"
"122116","18:03:03","13","13","compatibletest","3","attributeB","39","23","1","533","7","Failure","-1.676933539256159289","-691.3333333333333712289","92.3076923076923065992"
"122116","18:03:03","13","13","compatibletest","3","targetAleft","40","18","1","562","3","bf56_nc.jpg","-1.6790968744939505086","-688.1000000000000227374","92.5"
"122116","18:03:03","13","13","compatibletest","3","attributeA","41","18","1","786","5","Glorious","-1.685736464386021094","-690.4878048780487915792","92.6829268292682968422"
"122116","18:03:03","13","13","compatibletest","3","attributeB","42","23","1","794","2","Agony","-1.6920391760020472294","-692.9523809523809632083","92.8571428571428612031"
"122116","18:03:03","13","13","compatibletest","3","attributeB","43","23","1","525","4","Nasty","-1.6919132513598409417","-689.0465116279069661687","93.0232558139534830843"
"122116","18:03:03","13","13","compatibletest","3","targetAleft","44","18","1","581","5","bm23_nc.jpg","-1.6945680344562867869","-686.5909090909091219146","93.1818181818181727749"
"122116","18:03:03","13","13","compatibletest","3","attributeB","45","23","1","587","6","Horrible","-1.6974391300354749745","-684.3777777777777373558","93.3333333333333285964"
"122116","18:03:03","13","13","compatibletest","3","targetAleft","46","18","1","566","2","bf23_nc.jpg","-1.6994623873858512031","-681.804347826086996065","93.478260869565218627"
"122116","18:03:03","13","13","compatibletest","3","attributeA","47","18","1","576","1","Joy","-1.7018914691992583776","-679.5531914893616658446","93.6170212765957501233"
"122116","18:03:03","13","13","compatibletest","3","attributeB","48","23","1","499","5","Terrible","-1.700803640564722885","-675.7916666666666287711","93.75"
"122116","18:03:03","13","13","compatibletest","3","attributeA","49","18","1","523","3","Laughter","-1.7010949495207692284","-672.6734693877550625984","93.8775510204081626853"
"122116","18:03:03","13","13","compatibletest","3","targetAleft","50","18","1","689","5","bm23_nc.jpg","-1.7061000694820294132","-673","94"
"122116","18:03:03","13","13","compatibletest","3","attributeB","51","23","1","569","8","Hurt","-1.7082700203639444858","-670.9607843137255258625","94.1176470588235218884"
"122116","18:03:03","13","13","compatibletest","3","attributeB","52","23","1","505","1","Evil","-1.7077860755517393354","-667.7692307692307167599","94.2307692307692263967"
"122116","18:03:03","13","13","compatibletest","3","attributeA","53","18","1","567","4","Love","-1.7099330471178026958","-665.8679245283018417467","94.3396226415094361073"
"122116","18:03:03","13","13","compatibletest","3","attributeB","54","23","1","624","4","Nasty","-1.7136022977593816652","-665.0925925925926094351","94.4444444444444428655"
"122116","18:03:03","13","13","compatibletest","3","targetAleft","55","18","1","600","4","bm14_nc.jpg","-1.7166330867147086003","-663.9090909090908780854","94.5454545454545467464"
"122116","18:03:03","13","13","compatibletest","3","targetAleft","56","18","1","533","3","bf56_nc.jpg","-1.7174847187287045625","-661.5714285714285551876","94.6428571428571387969"
"122116","18:03:03","13","13","compatibletest","3","attributeA","57","18","1","653","8","Wonderful","-1.7214214869110227024","-661.4210526315789593355","94.7368421052631504153"
"122116","18:03:03","13","13","compatibletest","3","attributeB","58","23","1","991","7","Failure","-1.7181391462685338123","-667.1034482758620924869","94.8275862068965551543"
"122116","18:03:03","13","13","compatibletest","3","attributeB","59","23","1","657","2","Agony","-1.7219143138690156114","-666.9322033898305335242","94.9152542372881384836"
"122116","18:03:03","13","13","compatibletest","3","targetAleft","60","18","1","570","1","bf14_nc.jpg","-1.7237778349640999753","-665.3166666666667197205","95"
"122116","18:03:03","13","13","compatibletest","3","targetAleft","61","18","1","430","6","bm56_nc.jpg","-1.7197477196097807894","-661.4590163934426527703","95.0819672131147513028"
"122116","18:03:03","13","13","compatibletest","3","targetAleft","62","18","1","471","2","bf23_nc.jpg","-1.7180272864054191295","-658.3870967741935373851","95.161290322580654788"
"122116","18:03:03","13","13","compatibletest","3","attributeA","63","18","1","508","7","Peace","-1.7180030256171203717","-656","95.2380952380952265912"
"122116","18:03:03","13","13","compatibletest","3","attributeB","64","23","1","540","3","Awful","-1.719158826105132043","-654.1875","95.3125"
"122116","18:03:03","13","13","compatibletest","3","targetAleft","65","18","1","660","3","bf56_nc.jpg","-1.7227316555561249523","-654.2769230769230262013","95.3846153846153868017"
"122116","18:03:03","13","13","compatibletest","3","attributeA","66","18","1","547","3","Laughter","-1.7240639067790659578","-652.6515151515151273998","95.4545454545454532536"
"122116","18:03:03","13","13","compatibletest","3","targetAleft","67","18","1","755","2","bf23_nc.jpg","-1.7274653704459874692","-654.1791044776119861126","95.5223880597014840532"
"122116","18:03:03","13","13","compatibletest","3","attributeB","68","23","1","596","4","Nasty","-1.7299028224971266798","-653.3235294117647526946","95.5882352941176520744"
"122116","18:03:03","13","13","compatibletest","3","attributeB","69","23","1","545","2","Agony","-1.731082010855888198","-651.7536231884057542629","95.6521739130434838216"
"122116","18:03:03","13","13","compatibletest","3","attributeB","70","23","1","485","5","Terrible","-1.7302820892596846303","-649.3714285714286233997","95.7142857142857224062"
"122116","18:03:03","13","13","incompatibletest","5","attributeB","1","23","1","712","8","Hurt","0.3376203072086872425","62.6285714285713766003","95.7746478873239368568"
"122116","18:03:03","13","13","incompatibletest","5","attributeB","2","23","1","455","6","Horrible","-0.3545874761136012521","-65.8714285714286233997","95.8333333333333428072"
"122116","18:03:03","13","13","incompatibletest","5","targetAright","3","23","1","426","1","bf14_nc.jpg","-0.6176632048335644054","-118.3714285714286233997","95.8904109589040984929"
"122116","18:03:03","13","13","incompatibletest","5","attributeB","4","23","1","531","1","Evil","-0.6215262162549940461","-118.3714285714286233997","95.9459459459459367281"
"122116","18:03:03","13","13","incompatibletest","5","targetAright","5","23","1","458","5","bm23_nc.jpg","-0.6930027343044767862","-132.9714285714286461371","96"
"122116","18:03:03","13","13","incompatibletest","5","attributeA","6","18","1","450","7","Peace","-0.7466972731580386879","-144.0380952380953090142","96.0526315789473699169"
"122116","18:03:03","13","13","incompatibletest","5","targetAright","7","23","1","473","6","bm56_nc.jpg","-0.7713386639627203278","-148.6571428571429009935","96.1038961038961048189"
"122116","18:03:03","13","13","incompatibletest","5","attributeA","8","18","1","1506","8","Wonderful","-0.1112168688919230874","-22.9964285714286233997","96.153846153846160405"
"122116","18:03:03","13","13","incompatibletest","5","attributeA","9","18","1","509","5","Glorious","-0.1746876332820128108","-36.0380952380952521708","96.2025316455696213325"
"122116","18:03:03","13","13","incompatibletest","5","attributeB","10","23","1","458","3","Awful","-0.2497338119805862233","-51.5714285714286688744","96.25"
"122116","18:03:03","13","13","incompatibletest","5","attributeB","11","23","1","565","7","Failure","-0.2655228632224719831","-54.553246753246753542","96.2962962962962905067"
"122116","18:03:03","13","13","incompatibletest","5","attributeA","12","18","1","637","2","Happy","-0.2501555305501735882","-51.0380952380952521708","96.3414634146341484211"
"122116","18:03:03","13","13","incompatibletest","5","attributeB","13","23","1","814","6","Horrible","-0.1695269017562880953","-34.4483516483517178131","96.3855421686747035892"
"122116","18:03:03","13","13","incompatibletest","5","attributeB","14","23","1","571","4","Nasty","-0.1859033697742769053","-37.5857142857142889625","96.4285714285714306016"
"122116","18:03:03","13","13","incompatibletest","5","targetAright","15","23","1","453","4","bm14_nc.jpg","-0.2381818093696223271","-48.171428571428577925","96.4705882352941159752"
"122116","18:03:03","13","13","incompatibletest","5","targetAright","16","23","1","469","4","bm14_nc.jpg","-0.2792506228084891684","-56.4339285714286233997","96.511627906976755753"
"122116","18:03:03","13","13","incompatibletest","5","targetAright","17","23","1","479","2","bf23_nc.jpg","-0.3128783789498256196","-63.1361344537815512012","96.5517241379310320326"
"122116","18:03:03","13","13","incompatibletest","5","attributeB","18","23","1","885","1","Evil","-0.2304775765509087526","-46.5380952380952521708","96.5909090909090934929"
"122116","18:03:03","13","13","incompatibletest","5","attributeB","19","23","1","535","8","Hurt","-0.2491394927568369722","-50.1082706766917453933","96.6292134831460742816"
"122116","18:03:03","13","13","incompatibletest","5","targetAright","20","23","1","520","5","bm23_nc.jpg","-0.2697663411502874142","-54.0714285714286688744","96.6666666666666714036"
"122116","18:03:03","13","13","incompatibletest","5","attributeB","21","23","1","520","5","Terrible","-0.2886525560680134883","-57.6571428571429578369","96.7032967032967007981"
"122116","18:03:03","13","13","incompatibletest","5","attributeB","22","23","1","476","3","Awful","-0.3154934586786288242","-62.9168831168831275136","96.7391304347826093135"
"122116","18:03:03","13","13","incompatibletest","5","attributeA","23","18","0","1252","6","Pleasure","-0.1634017548807095155","-33.9801242236025018428","95.698924731182799519"
"122116","18:03:03","13","13","incompatibletest","5","attributeA","24","18","1","631","1","Joy","-0.1611532903686357654","-33.3297619047619946286","95.7446808510638334155"
"122116","18:03:03","13","13","incompatibletest","5","attributeA","25","18","1","492","4","Love","-0.1855891607459287107","-38.2914285714285824724","95.7894736842105203323"
"122116","18:03:03","13","13","incompatibletest","5","targetAright","26","23","1","568","1","bf14_nc.jpg","-0.1945191658318757288","-39.9483516483517178131","95.8333333333333428072"
"122116","18:03:03","13","13","incompatibletest","5","attributeA","27","18","1","718","5","Glorious","-0.175760945000554919","-35.9269841269841663234","95.8762886597938148725"
"122116","18:03:03","13","13","incompatibletest","5","targetAright","28","23","1","654","3","bf56_nc.jpg","-0.1695637677259184128","-34.4785714285715130245","95.9183673469387656496"
"122116","18:03:03","13","13","incompatibletest","5","attributeA","29","18","1","1259","6","Pleasure","-0.0579916756114266657","-12.2679802955665309128","95.9595959595959584476"
"122116","18:03:03","13","13","incompatibletest","5","targetAright","30","23","1","482","6","bm56_nc.jpg","-0.0825956056973954078","-17.4380952380953431202","96"
"122116","18:03:03","13","13","incompatibletest","5","attributeA","31","18","1","728","2","Happy","-0.0682093167922557808","-14.339170506912523706","96.0396039603960360864"
"122116","18:03:03","13","13","incompatibletest","5","targetAright","32","23","1","574","2","bf23_nc.jpg","-0.0776221178101784703","-16.2464285714286233997","96.0784313725490193292"
"122116","18:03:03","13","13","incompatibletest","5","attributeA","33","18","1","813","8","Wonderful","-0.0516730477698492605","-10.7956709956710028564","96.1165048543689408689"
"122116","18:03:03","13","13","incompatibletest","5","attributeA","34","18","1","514","1","Joy","-0.0694127754220874998","-14.4596638655463038958","96.153846153846160405"
"122116","18:03:03","13","13","incompatibletest","5","targetAright","35","23","1","466","4","bm14_nc.jpg","-0.0926966012359118768","-19.2857142857143344372","96.1904761904761897995"
"122116","18:03:03","13","13","incompatibletest","5","attributeA","36","18","1","1074","3","Laughter","-0.0329253867531579536","-6.9547619047619946286","96.2264150943396288085"
"122116","18:03:03","13","13","incompatibletest","5","targetAright","37","23","1","1022","3","bf56_nc.jpg","0.0154889268277272323","3.3042471042469969689","96.2616822429906591196"
"122116","18:03:03","13","13","incompatibletest","5","attributeB","38","23","1","568","7","Failure","0.0050637639742892255","1.0759398496239782617","96.2962962962962905067"
"122116","18:03:03","13","13","incompatibletest","5","targetAright","39","23","1","594","6","bm56_nc.jpg","-0.0017556683621300882","-0.3714285714286233997","96.3302752293577952969"
"122116","18:03:03","13","13","incompatibletest","5","targetAright","40","23","1","423","5","bm23_nc.jpg","-0.0284444972378001676","-6.0214285714286006623","96.3636363636363597607"
"122116","18:03:03","13","13","incompatibletest","5","attributeA","41","18","1","901","4","Love","0.0012386674326059297","0.2627177700347829159","96.3963963963963976767"
"122116","18:03:03","13","13","incompatibletest","5","targetAright","42","23","1","503","1","bf14_nc.jpg","-0.0152584006834689586","-3.2285714285715130245","96.4285714285714306016"
"122116","18:03:03","13","13","incompatibletest","5","attributeA","43","18","0","993","7","Peace","0.0226991723869635446","4.8378737541527243593","95.5752212389380559898"
"122116","18:03:03","13","13","incompatibletest","5","attributeA","44","18","1","912","4","Love","0.0500810767801059403","10.696753246753246458","95.6140350877193014867"
"122116","18:03:03","13","13","incompatibletest","5","attributeB","45","23","1","605","2","Agony","0.0445376150796690934","9.4730158730158109393","95.6521739130434838216"
"122116","18:03:03","13","13","incompatibletest","5","attributeA","46","18","1","598","5","Glorious","0.0384755126190467894","8.1503105590061295516","95.6896551724137935935"
"122116","18:03:03","13","13","incompatibletest","5","attributeB","47","23","1","548","1","Evil","0.0275653611258178492","5.8200607902734873278","95.7264957264957274674"
"122116","18:03:03","13","13","incompatibletest","5","attributeA","48","18","1","577","2","Happy","0.0199247896992605228","4.1910714285713766003","95.7627118644067820696"
"122116","18:03:03","13","13","incompatibletest","5","attributeB","49","23","1","724","4","Nasty","0.0268592189164023852","5.6285714285713766003","95.7983193277310931535"
"122116","18:03:03","13","13","incompatibletest","5","targetAright","50","23","1","811","6","bm56_nc.jpg","0.0418226219568126889","8.7485714285713811478","95.8333333333333428072"
"122116","18:03:03","13","13","incompatibletest","5","attributeA","51","18","1","664","7","Peace","0.0425509874889458198","8.8638655462184487988","95.8677685950413263072"
"122116","18:03:03","13","13","incompatibletest","5","attributeB","52","23","1","547","5","Terrible","0.0323816613300006856","6.7247252747251877736","95.9016393442622927523"
"122116","18:03:03","13","13","incompatibletest","5","attributeA","53","18","1","540","3","Laughter","0.0218976222034418869","4.5342318059298349908","95.9349593495934982457"
"122116","18:03:03","13","13","incompatibletest","5","attributeA","54","18","1","516","8","Wonderful","0.0095867529906943205","1.9804232804232242415","95.9677419354838718846"
"122116","18:03:03","13","13","incompatibletest","5","attributeB","55","23","1","534","2","Agony","-0.0007438912236428199","-0.1532467532467762794","96"
"122116","18:03:03","13","13","incompatibletest","5","attributeA","56","18","1","531","1","Joy","-0.0110210070112865613","-2.2642857142857337749","96.0317460317460387387"
"122116","18:03:03","13","13","incompatibletest","5","attributeA","57","18","1","637","6","Pleasure","-0.0119313689176910494","-2.4416040100251166223","96.0629921259842518566"
"122116","18:03:03","13","13","incompatibletest","5","attributeB","58","23","1","639","7","Failure","-0.0126492799586202","-2.5783251231528083736","96.09375"
"122116","18:03:03","13","13","incompatibletest","5","attributeA","59","18","1","677","1","Joy","-0.0101765368942526961","-2.0663438256659674153","96.1240310077519382048"
"122116","18:03:03","13","13","incompatibletest","5","targetAright","60","23","1","754","5","bm23_nc.jpg","-0.0014228817275002651","-0.2880952380952521708","96.153846153846160405"
"122116","18:03:03","13","13","incompatibletest","5","attributeA","61","18","1","717","8","Wonderful","0.0040900681758223425","0.8252927400467342522","96.1832061068702302009"
"122116","18:03:03","13","13","incompatibletest","5","attributeA","62","18","1","684","4","Love","0.0068174188882467986","1.3705069124423516769","96.2121212121212181501"
"122116","18:03:03","13","13","incompatibletest","5","targetAright","63","23","1","655","4","bm14_nc.jpg","0.0071808640589515887","1.4380952380952294334","96.2406015037593931538"
"122116","18:03:03","13","13","incompatibletest","5","targetAright","64","23","1","418","3","bf56_nc.jpg","-0.0109693590277298563","-2.1995535714286233997","96.2686567164179081146"
"122116","18:03:03","13","13","incompatibletest","5","attributeB","65","23","1","685","8","Hurt","-0.0080962795106857242","-1.6175824175825255224","96.2962962962962905067"
"122116","18:03:03","13","13","incompatibletest","5","attributeA","66","18","1","532","7","Peace","-0.0169161061426743448","-3.3714285714286233997","96.323529411764710062"
"122116","18:03:03","13","13","incompatibletest","5","attributeA","67","18","0","894","2","Happy","0.0016529618022259505","0.3300639658848467661","95.6204379562043840224"
"122116","18:03:03","13","13","incompatibletest","5","attributeB","68","23","1","647","6","Horrible","0.0014593396045253545","0.2903361344536961042","95.6521739130434838216"
"122116","18:03:03","13","13","incompatibletest","5","attributeA","69","18","1","856","6","Pleasure","0.0164861242825939946","3.2807453416148746328","95.6834532374100774632"
"122116","18:03:03","13","13","incompatibletest","5","attributeA","70","18","1","560","3","Laughter","0.0098630216906603115","1.9571428571427986753","95.7142857142857224062"
"122116","17:41:11","6","6","practice_incompatibletest","1","attributeB","2","23","1","2006","6","Horrible","","0","0"
