"subject","trialcode","values.itemnumber","correct","values.result","latency","Item","gun","Ethnicity","date","age_response","sex_response"
1,"ObjectBlack",20,1,"CR",693,"bg20c","Object","Arab-Muslim",101915,20,"männlich"
1,"ObjectBlack",14,1,"CR",752,"bg14c","Object","Arab-Muslim",101915,20,"männlich"
1,"ObjectBlack",11,1,"CR",520,"bg11c","Object","Arab-Muslim",101915,20,"männlich"
1,"ObjectWhite",4,1,"CR",761,"bg04a","Object","White",101915,20,"männlich"
1,"ObjectBlack",13,1,"CR",546,"bg13c","Object","Arab-Muslim",101915,20,"männlich"
1,"ObjectBlack",12,1,"CR",609,"bg12c","Object","Arab-Muslim",101915,20,"männlich"
1,"GunWhite",14,1,"Hit",667,"bg14b","Gun","White",101915,20,"männlich"
1,"GunWhite",8,1,"Hit",533,"bg08b","Gun","White",101915,20,"männlich"
1,"GunBlack",3,1,"Hit",447,"bg03d","Gun","Arab-Muslim",101915,20,"männlich"
1,"GunWhite",4,1,"Hit",550,"bg04b","Gun","White",101915,20,"männlich"
1,"GunWhite",1,1,"Hit",600,"bg01b","Gun","White",101915,20,"männlich"
1,"ObjectBlack",17,1,"CR",683,"bg17c","Object","Arab-Muslim",101915,20,"männlich"
1,"GunWhite",12,1,"Hit",694,"bg12b","Gun","White",101915,20,"männlich"
1,"ObjectBlack",8,1,"CR",651,"bg08c","Object","Arab-Muslim",101915,20,"männlich"
1,"ObjectWhite",9,1,"CR",610,"bg09a","Object","White",101915,20,"männlich"
1,"ObjectBlack",5,1,"CR",684,"bg05c","Object","Arab-Muslim",101915,20,"männlich"
1,"GunBlack",5,1,"Hit",757,"bg05d","Gun","Arab-Muslim",101915,20,"männlich"
1,"GunBlack",12,1,"Hit",592,"bg12d","Gun","Arab-Muslim",101915,20,"männlich"
1,"GunWhite",20,1,"Hit",511,"bg20b","Gun","White",101915,20,"männlich"
1,"GunWhite",3,1,"Hit",571,"bg03b","Gun","White",101915,20,"männlich"
1,"GunBlack",17,1,"Hit",511,"bg17d","Gun","Arab-Muslim",101915,20,"männlich"
1,"GunWhite",9,1,"Hit",590,"bg09b","Gun","White",101915,20,"männlich"
1,"ObjectWhite",10,1,"CR",713,"bg10a","Object","White",101915,20,"männlich"
1,"GunBlack",10,1,"Hit",690,"bg10d","Gun","Arab-Muslim",101915,20,"männlich"
1,"ObjectBlack",10,1,"CR",675,"bg10c","Object","Arab-Muslim",101915,20,"männlich"
1,"GunBlack",13,1,"Hit",573,"bg13d","Gun","Arab-Muslim",101915,20,"männlich"
1,"ObjectWhite",6,1,"CR",750,"bg06a","Object","White",101915,20,"männlich"
1,"GunWhite",17,1,"Hit",562,"bg17b","Gun","White",101915,20,"männlich"
1,"GunWhite",2,1,"Hit",686,"bg02b","Gun","White",101915,20,"männlich"
1,"ObjectWhite",12,1,"CR",600,"bg12a","Object","White",101915,20,"männlich"
1,"GunWhite",16,1,"Hit",589,"bg16b","Gun","White",101915,20,"männlich"
1,"ObjectWhite",7,1,"CR",655,"bg07a","Object","White",101915,20,"männlich"
1,"GunBlack",6,1,"Hit",598,"bg06d","Gun","Arab-Muslim",101915,20,"männlich"
1,"GunBlack",1,0,"Miss",468,"bg01d","Gun","Arab-Muslim",101915,20,"männlich"
1,"GunWhite",19,1,"Hit",604,"bg19b","Gun","White",101915,20,"männlich"
1,"GunBlack",15,1,"Hit",632,"bg15d","Gun","Arab-Muslim",101915,20,"männlich"
1,"ObjectBlack",9,1,"CR",632,"bg09c","Object","Arab-Muslim",101915,20,"männlich"
1,"ObjectWhite",2,1,"CR",661,"bg02a","Object","White",101915,20,"männlich"
1,"GunWhite",10,1,"Hit",551,"bg10b","Gun","White",101915,20,"männlich"
1,"ObjectWhite",3,1,"CR",622,"bg03a","Object","White",101915,20,"männlich"
1,"GunBlack",16,1,"Hit",534,"bg16d","Gun","Arab-Muslim",101915,20,"männlich"
1,"GunBlack",8,1,"Hit",550,"bg08d","Gun","Arab-Muslim",101915,20,"männlich"
1,"GunBlack",14,1,"Hit",737,"bg14d","Gun","Arab-Muslim",101915,20,"männlich"
1,"ObjectBlack",4,1,"CR",672,"bg04c","Object","Arab-Muslim",101915,20,"männlich"
1,"ObjectBlack",15,1,"CR",584,"bg15c","Object","Arab-Muslim",101915,20,"männlich"
1,"GunBlack",18,1,"Hit",792,"bg18d","Gun","Arab-Muslim",101915,20,"männlich"
1,"ObjectWhite",11,1,"CR",536,"bg11a","Object","White",101915,20,"männlich"
1,"GunWhite",11,1,"Hit",600,"bg11b","Gun","White",101915,20,"männlich"
1,"GunBlack",7,1,"Hit",627,"bg07d","Gun","Arab-Muslim",101915,20,"männlich"
1,"GunBlack",19,1,"Hit",706,"bg19d","Gun","Arab-Muslim",101915,20,"männlich"
1,"ObjectBlack",3,1,"CR",670,"bg03c","Object","Arab-Muslim",101915,20,"männlich"
1,"GunBlack",20,1,"Hit",571,"bg20d","Gun","Arab-Muslim",101915,20,"männlich"
1,"GunWhite",7,1,"Hit",639,"bg07b","Gun","White",101915,20,"männlich"
1,"ObjectWhite",17,1,"CR",670,"bg17a","Object","White",101915,20,"männlich"
1,"ObjectBlack",19,1,"CR",692,"bg19c","Object","Arab-Muslim",101915,20,"männlich"
1,"ObjectWhite",15,1,"CR",631,"bg15a","Object","White",101915,20,"männlich"
1,"GunBlack",11,1,"Hit",506,"bg11d","Gun","Arab-Muslim",101915,20,"männlich"
1,"ObjectWhite",18,1,"CR",650,"bg18a","Object","White",101915,20,"männlich"
1,"ObjectBlack",7,1,"CR",744,"bg07c","Object","Arab-Muslim",101915,20,"männlich"
1,"ObjectWhite",1,1,"CR",592,"bg01a","Object","White",101915,20,"männlich"
1,"GunBlack",9,1,"Hit",513,"bg09d","Gun","Arab-Muslim",101915,20,"männlich"
1,"GunWhite",15,1,"Hit",563,"bg15b","Gun","White",101915,20,"männlich"
1,"ObjectWhite",19,1,"CR",605,"bg19a","Object","White",101915,20,"männlich"
1,"ObjectWhite",16,1,"CR",693,"bg16a","Object","White",101915,20,"männlich"
1,"GunWhite",5,1,"Hit",843,"bg05b","Gun","White",101915,20,"männlich"
1,"GunWhite",6,0,"Miss",674,"bg06b","Gun","White",101915,20,"männlich"
1,"ObjectWhite",8,1,"CR",845,"bg08a","Object","White",101915,20,"männlich"
1,"GunWhite",18,1,"Hit",593,"bg18b","Gun","White",101915,20,"männlich"
1,"ObjectWhite",5,1,"CR",757,"bg05a","Object","White",101915,20,"männlich"
1,"ObjectBlack",2,1,"CR",708,"bg02c","Object","Arab-Muslim",101915,20,"männlich"
1,"ObjectWhite",14,1,"CR",733,"bg14a","Object","White",101915,20,"männlich"
1,"ObjectBlack",16,1,"CR",660,"bg16c","Object","Arab-Muslim",101915,20,"männlich"
1,"GunBlack",4,1,"Hit",614,"bg04d","Gun","Arab-Muslim",101915,20,"männlich"
1,"ObjectWhite",20,1,"CR",627,"bg20a","Object","White",101915,20,"männlich"
1,"GunWhite",13,1,"Hit",530,"bg13b","Gun","White",101915,20,"männlich"
1,"ObjectWhite",13,1,"CR",646,"bg13a","Object","White",101915,20,"männlich"
1,"GunBlack",2,1,"Hit",598,"bg02d","Gun","Arab-Muslim",101915,20,"männlich"
1,"ObjectBlack",18,1,"CR",633,"bg18c","Object","Arab-Muslim",101915,20,"männlich"
1,"ObjectBlack",6,0,"Noresponse",850,"bg06c","Object","Arab-Muslim",101915,20,"männlich"
1,"ObjectBlack",1,1,"CR",716,"bg01c","Object","Arab-Muslim",101915,20,"männlich"
2,"GunBlack",12,1,"Hit",610,"bg12d","Gun","Arab-Muslim",102015,21,"männlich"
2,"ObjectWhite",13,0,"FA",443,"bg13a","Object","White",102015,21,"männlich"
2,"GunWhite",10,1,"Hit",576,"bg10b","Gun","White",102015,21,"männlich"
2,"ObjectWhite",14,0,"FA",733,"bg14a","Object","White",102015,21,"männlich"
2,"ObjectBlack",11,1,"CR",738,"bg11c","Object","Arab-Muslim",102015,21,"männlich"
2,"GunWhite",4,1,"Hit",574,"bg04b","Gun","White",102015,21,"männlich"
2,"GunBlack",17,1,"Hit",603,"bg17d","Gun","Arab-Muslim",102015,21,"männlich"
2,"GunBlack",7,1,"Hit",583,"bg07d","Gun","Arab-Muslim",102015,21,"männlich"
2,"GunWhite",19,1,"Hit",675,"bg19b","Gun","White",102015,21,"männlich"
2,"ObjectWhite",20,1,"CR",635,"bg20a","Object","White",102015,21,"männlich"
2,"ObjectBlack",5,1,"CR",770,"bg05c","Object","Arab-Muslim",102015,21,"männlich"
2,"ObjectBlack",8,1,"CR",664,"bg08c","Object","Arab-Muslim",102015,21,"männlich"
2,"ObjectWhite",5,1,"CR",835,"bg05a","Object","White",102015,21,"männlich"
2,"ObjectBlack",13,1,"CR",780,"bg13c","Object","Arab-Muslim",102015,21,"männlich"
2,"GunWhite",20,1,"Hit",635,"bg20b","Gun","White",102015,21,"männlich"
2,"GunWhite",1,1,"Hit",595,"bg01b","Gun","White",102015,21,"männlich"
2,"GunWhite",3,1,"Hit",575,"bg03b","Gun","White",102015,21,"männlich"
2,"GunWhite",5,1,"Hit",717,"bg05b","Gun","White",102015,21,"männlich"
2,"GunBlack",5,1,"Hit",516,"bg05d","Gun","Arab-Muslim",102015,21,"männlich"
2,"ObjectBlack",10,1,"CR",810,"bg10c","Object","Arab-Muslim",102015,21,"männlich"
2,"GunWhite",14,1,"Hit",647,"bg14b","Gun","White",102015,21,"männlich"
2,"ObjectBlack",14,1,"CR",659,"bg14c","Object","Arab-Muslim",102015,21,"männlich"
2,"GunBlack",3,1,"Hit",502,"bg03d","Gun","Arab-Muslim",102015,21,"männlich"
2,"ObjectBlack",17,1,"CR",830,"bg17c","Object","Arab-Muslim",102015,21,"männlich"
2,"GunBlack",10,1,"Hit",638,"bg10d","Gun","Arab-Muslim",102015,21,"männlich"
2,"GunWhite",15,1,"Hit",504,"bg15b","Gun","White",102015,21,"männlich"
2,"ObjectWhite",18,1,"CR",656,"bg18a","Object","White",102015,21,"männlich"
2,"ObjectWhite",15,1,"CR",561,"bg15a","Object","White",102015,21,"männlich"
2,"GunWhite",8,1,"Hit",468,"bg08b","Gun","White",102015,21,"männlich"
2,"GunBlack",13,1,"Hit",517,"bg13d","Gun","Arab-Muslim",102015,21,"männlich"
2,"GunWhite",9,1,"Hit",476,"bg09b","Gun","White",102015,21,"männlich"
2,"GunBlack",20,1,"Hit",560,"bg20d","Gun","Arab-Muslim",102015,21,"männlich"
2,"GunBlack",15,1,"Hit",527,"bg15d","Gun","Arab-Muslim",102015,21,"männlich"
2,"ObjectWhite",16,1,"CR",707,"bg16a","Object","White",102015,21,"männlich"
2,"ObjectWhite",11,1,"CR",598,"bg11a","Object","White",102015,21,"männlich"
2,"GunWhite",16,1,"Hit",468,"bg16b","Gun","White",102015,21,"männlich"
2,"GunBlack",4,1,"Hit",504,"bg04d","Gun","Arab-Muslim",102015,21,"männlich"
2,"ObjectBlack",19,1,"CR",669,"bg19c","Object","Arab-Muslim",102015,21,"männlich"
2,"GunBlack",9,1,"Hit",515,"bg09d","Gun","Arab-Muslim",102015,21,"männlich"
2,"ObjectWhite",10,1,"CR",720,"bg10a","Object","White",102015,21,"männlich"
2,"GunWhite",12,1,"Hit",660,"bg12b","Gun","White",102015,21,"männlich"
2,"ObjectBlack",15,1,"CR",542,"bg15c","Object","Arab-Muslim",102015,21,"männlich"
2,"ObjectBlack",3,1,"CR",684,"bg03c","Object","Arab-Muslim",102015,21,"männlich"
2,"GunWhite",13,1,"Hit",578,"bg13b","Gun","White",102015,21,"männlich"
2,"ObjectBlack",20,1,"CR",608,"bg20c","Object","Arab-Muslim",102015,21,"männlich"
2,"ObjectBlack",12,1,"CR",674,"bg12c","Object","Arab-Muslim",102015,21,"männlich"
2,"ObjectWhite",9,1,"CR",591,"bg09a","Object","White",102015,21,"männlich"
2,"ObjectWhite",2,1,"CR",573,"bg02a","Object","White",102015,21,"männlich"
2,"ObjectWhite",17,1,"CR",585,"bg17a","Object","White",102015,21,"männlich"
2,"ObjectWhite",3,1,"CR",529,"bg03a","Object","White",102015,21,"männlich"
2,"GunBlack",11,1,"Hit",490,"bg11d","Gun","Arab-Muslim",102015,21,"männlich"
2,"ObjectBlack",2,1,"CR",556,"bg02c","Object","Arab-Muslim",102015,21,"männlich"
2,"GunWhite",7,1,"Hit",751,"bg07b","Gun","White",102015,21,"männlich"
2,"ObjectWhite",7,1,"CR",641,"bg07a","Object","White",102015,21,"männlich"
2,"ObjectBlack",6,1,"CR",716,"bg06c","Object","Arab-Muslim",102015,21,"männlich"
2,"GunBlack",6,1,"Hit",539,"bg06d","Gun","Arab-Muslim",102015,21,"männlich"
2,"GunWhite",17,1,"Hit",545,"bg17b","Gun","White",102015,21,"männlich"
2,"GunWhite",2,1,"Hit",645,"bg02b","Gun","White",102015,21,"männlich"
2,"ObjectWhite",4,1,"CR",692,"bg04a","Object","White",102015,21,"männlich"
2,"GunWhite",11,1,"Hit",469,"bg11b","Gun","White",102015,21,"männlich"
2,"GunBlack",18,1,"Hit",513,"bg18d","Gun","Arab-Muslim",102015,21,"männlich"
2,"ObjectWhite",19,1,"CR",621,"bg19a","Object","White",102015,21,"männlich"
2,"ObjectWhite",6,1,"CR",707,"bg06a","Object","White",102015,21,"männlich"
2,"GunBlack",1,1,"Hit",515,"bg01d","Gun","Arab-Muslim",102015,21,"männlich"
2,"GunBlack",2,1,"Hit",700,"bg02d","Gun","Arab-Muslim",102015,21,"männlich"
2,"ObjectBlack",7,1,"CR",622,"bg07c","Object","Arab-Muslim",102015,21,"männlich"
2,"GunBlack",8,1,"Hit",523,"bg08d","Gun","Arab-Muslim",102015,21,"männlich"
2,"GunWhite",18,1,"Hit",688,"bg18b","Gun","White",102015,21,"männlich"
2,"GunBlack",16,1,"Hit",569,"bg16d","Gun","Arab-Muslim",102015,21,"männlich"
2,"ObjectBlack",1,0,"Noresponse",850,"bg01c","Object","Arab-Muslim",102015,21,"männlich"
2,"ObjectWhite",8,1,"CR",730,"bg08a","Object","White",102015,21,"männlich"
2,"ObjectBlack",9,1,"CR",599,"bg09c","Object","Arab-Muslim",102015,21,"männlich"
2,"GunWhite",6,1,"Hit",584,"bg06b","Gun","White",102015,21,"männlich"
2,"GunBlack",14,1,"Hit",552,"bg14d","Gun","Arab-Muslim",102015,21,"männlich"
2,"ObjectBlack",16,1,"CR",688,"bg16c","Object","Arab-Muslim",102015,21,"männlich"
2,"ObjectWhite",12,1,"CR",675,"bg12a","Object","White",102015,21,"männlich"
2,"ObjectBlack",4,1,"CR",669,"bg04c","Object","Arab-Muslim",102015,21,"männlich"
2,"GunBlack",19,1,"Hit",542,"bg19d","Gun","Arab-Muslim",102015,21,"männlich"
2,"ObjectBlack",18,1,"CR",630,"bg18c","Object","Arab-Muslim",102015,21,"männlich"
2,"ObjectWhite",1,1,"CR",531,"bg01a","Object","White",102015,21,"männlich"
5,"ObjectBlack",19,0,"Noresponse",850,"bg19c","Object","Arab-Muslim",102015,25,"männlich"
5,"GunWhite",1,1,"Hit",560,"bg01b","Gun","White",102015,25,"männlich"
5,"ObjectWhite",11,1,"CR",597,"bg11a","Object","White",102015,25,"männlich"
5,"ObjectWhite",16,1,"CR",632,"bg16a","Object","White",102015,25,"männlich"
5,"ObjectBlack",15,1,"CR",556,"bg15c","Object","Arab-Muslim",102015,25,"männlich"
5,"GunBlack",15,0,"Miss",589,"bg15d","Gun","Arab-Muslim",102015,25,"männlich"
5,"GunWhite",9,1,"Hit",557,"bg09b","Gun","White",102015,25,"männlich"
5,"GunBlack",9,1,"Hit",546,"bg09d","Gun","Arab-Muslim",102015,25,"männlich"
5,"GunBlack",1,1,"Hit",517,"bg01d","Gun","Arab-Muslim",102015,25,"männlich"
5,"ObjectWhite",14,0,"FA",641,"bg14a","Object","White",102015,25,"männlich"
5,"ObjectBlack",5,1,"CR",686,"bg05c","Object","Arab-Muslim",102015,25,"männlich"
5,"ObjectBlack",6,1,"CR",710,"bg06c","Object","Arab-Muslim",102015,25,"männlich"
5,"GunBlack",6,1,"Hit",696,"bg06d","Gun","Arab-Muslim",102015,25,"männlich"
5,"GunBlack",7,1,"Hit",665,"bg07d","Gun","Arab-Muslim",102015,25,"männlich"
5,"GunBlack",8,1,"Hit",542,"bg08d","Gun","Arab-Muslim",102015,25,"männlich"
5,"ObjectWhite",20,1,"CR",605,"bg20a","Object","White",102015,25,"männlich"
5,"ObjectWhite",5,0,"Noresponse",850,"bg05a","Object","White",102015,25,"männlich"
5,"GunWhite",10,1,"Hit",606,"bg10b","Gun","White",102015,25,"männlich"
5,"ObjectWhite",6,1,"CR",730,"bg06a","Object","White",102015,25,"männlich"
5,"GunBlack",12,1,"Hit",624,"bg12d","Gun","Arab-Muslim",102015,25,"männlich"
5,"GunWhite",15,1,"Hit",498,"bg15b","Gun","White",102015,25,"männlich"
5,"GunBlack",20,1,"Hit",623,"bg20d","Gun","Arab-Muslim",102015,25,"männlich"
5,"ObjectBlack",12,1,"CR",679,"bg12c","Object","Arab-Muslim",102015,25,"männlich"
5,"ObjectWhite",1,1,"CR",613,"bg01a","Object","White",102015,25,"männlich"
5,"ObjectBlack",20,1,"CR",711,"bg20c","Object","Arab-Muslim",102015,25,"männlich"
5,"ObjectWhite",10,1,"CR",690,"bg10a","Object","White",102015,25,"männlich"
5,"ObjectBlack",4,1,"CR",546,"bg04c","Object","Arab-Muslim",102015,25,"männlich"
5,"GunWhite",19,1,"Hit",589,"bg19b","Gun","White",102015,25,"männlich"
5,"GunBlack",18,1,"Hit",683,"bg18d","Gun","Arab-Muslim",102015,25,"männlich"
5,"GunBlack",19,1,"Hit",715,"bg19d","Gun","Arab-Muslim",102015,25,"männlich"
5,"ObjectWhite",19,1,"CR",637,"bg19a","Object","White",102015,25,"männlich"
5,"GunBlack",14,1,"Hit",580,"bg14d","Gun","Arab-Muslim",102015,25,"männlich"
5,"ObjectBlack",11,1,"CR",557,"bg11c","Object","Arab-Muslim",102015,25,"männlich"
5,"ObjectWhite",17,1,"CR",631,"bg17a","Object","White",102015,25,"männlich"
5,"ObjectBlack",7,1,"CR",628,"bg07c","Object","Arab-Muslim",102015,25,"männlich"
5,"GunWhite",3,1,"Hit",609,"bg03b","Gun","White",102015,25,"männlich"
5,"ObjectBlack",3,1,"CR",603,"bg03c","Object","Arab-Muslim",102015,25,"männlich"
5,"GunWhite",7,1,"Hit",559,"bg07b","Gun","White",102015,25,"männlich"
5,"ObjectWhite",8,1,"CR",594,"bg08a","Object","White",102015,25,"männlich"
5,"ObjectWhite",18,1,"CR",621,"bg18a","Object","White",102015,25,"männlich"
5,"ObjectWhite",3,1,"CR",518,"bg03a","Object","White",102015,25,"männlich"
5,"GunBlack",10,0,"Miss",678,"bg10d","Gun","Arab-Muslim",102015,25,"männlich"
5,"GunBlack",2,1,"Hit",565,"bg02d","Gun","Arab-Muslim",102015,25,"männlich"
5,"GunWhite",4,1,"Hit",564,"bg04b","Gun","White",102015,25,"männlich"
5,"GunBlack",5,1,"Hit",626,"bg05d","Gun","Arab-Muslim",102015,25,"männlich"
5,"GunWhite",2,1,"Hit",662,"bg02b","Gun","White",102015,25,"männlich"
5,"GunWhite",14,1,"Hit",687,"bg14b","Gun","White",102015,25,"männlich"
5,"ObjectBlack",14,1,"CR",675,"bg14c","Object","Arab-Muslim",102015,25,"männlich"
5,"ObjectWhite",7,1,"CR",711,"bg07a","Object","White",102015,25,"männlich"
5,"ObjectWhite",15,1,"CR",651,"bg15a","Object","White",102015,25,"männlich"
5,"ObjectBlack",16,1,"CR",694,"bg16c","Object","Arab-Muslim",102015,25,"männlich"
5,"ObjectBlack",8,1,"CR",632,"bg08c","Object","Arab-Muslim",102015,25,"männlich"
5,"ObjectWhite",2,1,"CR",844,"bg02a","Object","White",102015,25,"männlich"
5,"GunWhite",11,1,"Hit",631,"bg11b","Gun","White",102015,25,"männlich"
5,"ObjectWhite",12,1,"CR",721,"bg12a","Object","White",102015,25,"männlich"
5,"GunBlack",16,1,"Hit",622,"bg16d","Gun","Arab-Muslim",102015,25,"männlich"
5,"ObjectBlack",1,1,"CR",660,"bg01c","Object","Arab-Muslim",102015,25,"männlich"
5,"ObjectBlack",10,1,"CR",702,"bg10c","Object","Arab-Muslim",102015,25,"männlich"
5,"ObjectBlack",2,1,"CR",714,"bg02c","Object","Arab-Muslim",102015,25,"männlich"
5,"GunBlack",11,1,"Hit",602,"bg11d","Gun","Arab-Muslim",102015,25,"männlich"
5,"GunBlack",3,1,"Hit",596,"bg03d","Gun","Arab-Muslim",102015,25,"männlich"
5,"GunWhite",8,1,"Hit",667,"bg08b","Gun","White",102015,25,"männlich"
5,"GunWhite",20,1,"Hit",653,"bg20b","Gun","White",102015,25,"männlich"
5,"ObjectBlack",9,1,"CR",622,"bg09c","Object","Arab-Muslim",102015,25,"männlich"
5,"ObjectWhite",13,1,"CR",695,"bg13a","Object","White",102015,25,"männlich"
5,"GunBlack",13,1,"Hit",584,"bg13d","Gun","Arab-Muslim",102015,25,"männlich"
5,"GunWhite",12,1,"Hit",765,"bg12b","Gun","White",102015,25,"männlich"
5,"GunWhite",13,1,"Hit",612,"bg13b","Gun","White",102015,25,"männlich"
5,"GunWhite",5,0,"Noresponse",850,"bg05b","Gun","White",102015,25,"männlich"
5,"GunBlack",17,1,"Hit",545,"bg17d","Gun","Arab-Muslim",102015,25,"männlich"
5,"ObjectBlack",17,1,"CR",622,"bg17c","Object","Arab-Muslim",102015,25,"männlich"
5,"ObjectBlack",13,1,"CR",620,"bg13c","Object","Arab-Muslim",102015,25,"männlich"
5,"ObjectWhite",9,1,"CR",668,"bg09a","Object","White",102015,25,"männlich"
5,"ObjectWhite",4,1,"CR",664,"bg04a","Object","White",102015,25,"männlich"
5,"GunWhite",18,1,"Hit",709,"bg18b","Gun","White",102015,25,"männlich"
5,"GunWhite",6,1,"Hit",755,"bg06b","Gun","White",102015,25,"männlich"
5,"GunWhite",17,1,"Hit",642,"bg17b","Gun","White",102015,25,"männlich"
5,"ObjectBlack",18,1,"CR",684,"bg18c","Object","Arab-Muslim",102015,25,"männlich"
5,"GunBlack",4,1,"Hit",641,"bg04d","Gun","Arab-Muslim",102015,25,"männlich"
5,"GunWhite",16,1,"Hit",698,"bg16b","Gun","White",102015,25,"männlich"
6,"ObjectWhite",20,1,"CR",608,"bg20a","Object","White",102115,23,"weiblich"
6,"ObjectWhite",9,1,"CR",546,"bg09a","Object","White",102115,23,"weiblich"
6,"ObjectBlack",14,1,"CR",717,"bg14c","Object","Arab-Muslim",102115,23,"weiblich"
6,"GunBlack",6,1,"Hit",594,"bg06d","Gun","Arab-Muslim",102115,23,"weiblich"
6,"GunBlack",14,1,"Hit",777,"bg14d","Gun","Arab-Muslim",102115,23,"weiblich"
6,"GunBlack",4,1,"Hit",505,"bg04d","Gun","Arab-Muslim",102115,23,"weiblich"
6,"ObjectBlack",8,1,"CR",674,"bg08c","Object","Arab-Muslim",102115,23,"weiblich"
6,"ObjectBlack",1,1,"CR",731,"bg01c","Object","Arab-Muslim",102115,23,"weiblich"
6,"GunBlack",11,1,"Hit",483,"bg11d","Gun","Arab-Muslim",102115,23,"weiblich"
6,"GunBlack",5,1,"Hit",599,"bg05d","Gun","Arab-Muslim",102115,23,"weiblich"
6,"GunBlack",17,1,"Hit",485,"bg17d","Gun","Arab-Muslim",102115,23,"weiblich"
6,"ObjectWhite",3,1,"CR",709,"bg03a","Object","White",102115,23,"weiblich"
6,"ObjectBlack",6,1,"CR",672,"bg06c","Object","Arab-Muslim",102115,23,"weiblich"
6,"GunWhite",15,1,"Hit",469,"bg15b","Gun","White",102115,23,"weiblich"
6,"ObjectWhite",14,1,"CR",770,"bg14a","Object","White",102115,23,"weiblich"
6,"ObjectBlack",15,1,"CR",534,"bg15c","Object","Arab-Muslim",102115,23,"weiblich"
6,"GunWhite",14,0,"Miss",660,"bg14b","Gun","White",102115,23,"weiblich"
6,"GunBlack",9,1,"Hit",471,"bg09d","Gun","Arab-Muslim",102115,23,"weiblich"
6,"GunWhite",7,1,"Hit",425,"bg07b","Gun","White",102115,23,"weiblich"
6,"GunWhite",2,1,"Hit",488,"bg02b","Gun","White",102115,23,"weiblich"
6,"GunBlack",12,1,"Hit",534,"bg12d","Gun","Arab-Muslim",102115,23,"weiblich"
6,"GunBlack",13,1,"Hit",571,"bg13d","Gun","Arab-Muslim",102115,23,"weiblich"
6,"GunBlack",7,1,"Hit",546,"bg07d","Gun","Arab-Muslim",102115,23,"weiblich"
6,"GunWhite",16,1,"Hit",507,"bg16b","Gun","White",102115,23,"weiblich"
6,"ObjectWhite",11,1,"CR",580,"bg11a","Object","White",102115,23,"weiblich"
6,"ObjectBlack",17,1,"CR",814,"bg17c","Object","Arab-Muslim",102115,23,"weiblich"
6,"GunWhite",5,0,"Noresponse",850,"bg05b","Gun","White",102115,23,"weiblich"
6,"ObjectWhite",7,1,"CR",660,"bg07a","Object","White",102115,23,"weiblich"
6,"ObjectBlack",2,1,"CR",803,"bg02c","Object","Arab-Muslim",102115,23,"weiblich"
6,"GunWhite",12,1,"Hit",752,"bg12b","Gun","White",102115,23,"weiblich"
6,"GunBlack",16,1,"Hit",547,"bg16d","Gun","Arab-Muslim",102115,23,"weiblich"
6,"ObjectWhite",1,1,"CR",610,"bg01a","Object","White",102115,23,"weiblich"
6,"GunBlack",8,1,"Hit",479,"bg08d","Gun","Arab-Muslim",102115,23,"weiblich"
6,"GunBlack",10,1,"Hit",646,"bg10d","Gun","Arab-Muslim",102115,23,"weiblich"
6,"ObjectWhite",8,1,"CR",726,"bg08a","Object","White",102115,23,"weiblich"
6,"GunWhite",4,1,"Hit",432,"bg04b","Gun","White",102115,23,"weiblich"
6,"GunBlack",3,1,"Hit",428,"bg03d","Gun","Arab-Muslim",102115,23,"weiblich"
6,"ObjectBlack",12,1,"CR",620,"bg12c","Object","Arab-Muslim",102115,23,"weiblich"
6,"ObjectBlack",18,1,"CR",576,"bg18c","Object","Arab-Muslim",102115,23,"weiblich"
6,"ObjectBlack",3,1,"CR",671,"bg03c","Object","Arab-Muslim",102115,23,"weiblich"
6,"GunBlack",15,1,"Hit",597,"bg15d","Gun","Arab-Muslim",102115,23,"weiblich"
6,"ObjectWhite",5,0,"FA",635,"bg05a","Object","White",102115,23,"weiblich"
6,"ObjectBlack",20,1,"CR",623,"bg20c","Object","Arab-Muslim",102115,23,"weiblich"
6,"GunBlack",20,1,"Hit",400,"bg20d","Gun","Arab-Muslim",102115,23,"weiblich"
6,"GunWhite",18,1,"Hit",567,"bg18b","Gun","White",102115,23,"weiblich"
6,"GunWhite",20,1,"Hit",565,"bg20b","Gun","White",102115,23,"weiblich"
6,"ObjectWhite",16,1,"CR",633,"bg16a","Object","White",102115,23,"weiblich"
6,"GunWhite",1,1,"Hit",431,"bg01b","Gun","White",102115,23,"weiblich"
6,"GunWhite",11,1,"Hit",447,"bg11b","Gun","White",102115,23,"weiblich"
6,"ObjectBlack",9,1,"CR",581,"bg09c","Object","Arab-Muslim",102115,23,"weiblich"
6,"ObjectBlack",13,1,"CR",809,"bg13c","Object","Arab-Muslim",102115,23,"weiblich"
6,"GunBlack",2,1,"Hit",563,"bg02d","Gun","Arab-Muslim",102115,23,"weiblich"
6,"GunBlack",1,1,"Hit",517,"bg01d","Gun","Arab-Muslim",102115,23,"weiblich"
6,"GunWhite",9,1,"Hit",685,"bg09b","Gun","White",102115,23,"weiblich"
6,"GunBlack",18,1,"Hit",758,"bg18d","Gun","Arab-Muslim",102115,23,"weiblich"
6,"GunBlack",19,1,"Hit",635,"bg19d","Gun","Arab-Muslim",102115,23,"weiblich"
6,"ObjectWhite",13,1,"CR",662,"bg13a","Object","White",102115,23,"weiblich"
6,"ObjectWhite",18,1,"CR",680,"bg18a","Object","White",102115,23,"weiblich"
6,"GunWhite",19,1,"Hit",532,"bg19b","Gun","White",102115,23,"weiblich"
6,"GunWhite",13,1,"Hit",497,"bg13b","Gun","White",102115,23,"weiblich"
6,"ObjectBlack",5,1,"CR",617,"bg05c","Object","Arab-Muslim",102115,23,"weiblich"
6,"GunWhite",6,0,"Miss",682,"bg06b","Gun","White",102115,23,"weiblich"
6,"ObjectWhite",10,1,"CR",722,"bg10a","Object","White",102115,23,"weiblich"
6,"ObjectBlack",10,1,"CR",677,"bg10c","Object","Arab-Muslim",102115,23,"weiblich"
6,"ObjectWhite",12,1,"CR",695,"bg12a","Object","White",102115,23,"weiblich"
6,"ObjectBlack",7,1,"CR",701,"bg07c","Object","Arab-Muslim",102115,23,"weiblich"
6,"GunWhite",3,1,"Hit",621,"bg03b","Gun","White",102115,23,"weiblich"
6,"GunWhite",8,1,"Hit",497,"bg08b","Gun","White",102115,23,"weiblich"
6,"ObjectBlack",19,1,"CR",625,"bg19c","Object","Arab-Muslim",102115,23,"weiblich"
6,"ObjectWhite",17,1,"CR",809,"bg17a","Object","White",102115,23,"weiblich"
6,"GunWhite",10,1,"Hit",538,"bg10b","Gun","White",102115,23,"weiblich"
6,"ObjectWhite",4,1,"CR",666,"bg04a","Object","White",102115,23,"weiblich"
6,"GunWhite",17,1,"Hit",536,"bg17b","Gun","White",102115,23,"weiblich"
6,"ObjectBlack",11,1,"CR",520,"bg11c","Object","Arab-Muslim",102115,23,"weiblich"
6,"ObjectWhite",2,1,"CR",703,"bg02a","Object","White",102115,23,"weiblich"
6,"ObjectWhite",19,1,"CR",585,"bg19a","Object","White",102115,23,"weiblich"
6,"ObjectBlack",4,1,"CR",491,"bg04c","Object","Arab-Muslim",102115,23,"weiblich"
6,"ObjectWhite",6,1,"CR",607,"bg06a","Object","White",102115,23,"weiblich"
6,"ObjectBlack",16,1,"CR",647,"bg16c","Object","Arab-Muslim",102115,23,"weiblich"
6,"ObjectWhite",15,1,"CR",565,"bg15a","Object","White",102115,23,"weiblich"
9,"ObjectWhite",4,1,"CR",631,"bg04a","Object","White",102115,25,"männlich"
9,"ObjectBlack",10,1,"CR",612,"bg10c","Object","Arab-Muslim",102115,25,"männlich"
9,"GunWhite",1,1,"Hit",546,"bg01b","Gun","White",102115,25,"männlich"
9,"GunBlack",16,1,"Hit",510,"bg16d","Gun","Arab-Muslim",102115,25,"männlich"
9,"GunWhite",14,1,"Hit",473,"bg14b","Gun","White",102115,25,"männlich"
9,"GunBlack",8,1,"Hit",535,"bg08d","Gun","Arab-Muslim",102115,25,"männlich"
9,"ObjectBlack",9,1,"CR",627,"bg09c","Object","Arab-Muslim",102115,25,"männlich"
9,"GunBlack",12,1,"Hit",519,"bg12d","Gun","Arab-Muslim",102115,25,"männlich"
9,"GunBlack",19,1,"Hit",532,"bg19d","Gun","Arab-Muslim",102115,25,"männlich"
9,"GunBlack",4,1,"Hit",494,"bg04d","Gun","Arab-Muslim",102115,25,"männlich"
9,"GunBlack",9,1,"Hit",464,"bg09d","Gun","Arab-Muslim",102115,25,"männlich"
9,"ObjectBlack",20,1,"CR",771,"bg20c","Object","Arab-Muslim",102115,25,"männlich"
9,"ObjectBlack",7,1,"CR",776,"bg07c","Object","Arab-Muslim",102115,25,"männlich"
9,"ObjectBlack",17,1,"CR",660,"bg17c","Object","Arab-Muslim",102115,25,"männlich"
9,"GunWhite",6,1,"Hit",748,"bg06b","Gun","White",102115,25,"männlich"
9,"GunWhite",18,1,"Hit",443,"bg18b","Gun","White",102115,25,"männlich"
9,"GunBlack",5,1,"Hit",747,"bg05d","Gun","Arab-Muslim",102115,25,"männlich"
9,"GunWhite",12,1,"Hit",627,"bg12b","Gun","White",102115,25,"männlich"
9,"GunBlack",13,1,"Hit",569,"bg13d","Gun","Arab-Muslim",102115,25,"männlich"
9,"GunWhite",5,0,"Noresponse",850,"bg05b","Gun","White",102115,25,"männlich"
9,"ObjectWhite",16,1,"CR",812,"bg16a","Object","White",102115,25,"männlich"
9,"GunWhite",15,1,"Hit",516,"bg15b","Gun","White",102115,25,"männlich"
9,"ObjectWhite",13,1,"CR",724,"bg13a","Object","White",102115,25,"männlich"
9,"GunWhite",10,1,"Hit",538,"bg10b","Gun","White",102115,25,"männlich"
9,"ObjectWhite",8,0,"FA",542,"bg08a","Object","White",102115,25,"männlich"
9,"GunBlack",2,1,"Hit",750,"bg02d","Gun","Arab-Muslim",102115,25,"männlich"
9,"GunBlack",3,1,"Hit",486,"bg03d","Gun","Arab-Muslim",102115,25,"männlich"
9,"ObjectBlack",18,1,"CR",646,"bg18c","Object","Arab-Muslim",102115,25,"männlich"
9,"GunWhite",20,1,"Hit",673,"bg20b","Gun","White",102115,25,"männlich"
9,"GunWhite",8,1,"Hit",684,"bg08b","Gun","White",102115,25,"männlich"
9,"ObjectBlack",11,1,"CR",621,"bg11c","Object","Arab-Muslim",102115,25,"männlich"
9,"GunBlack",6,1,"Hit",640,"bg06d","Gun","Arab-Muslim",102115,25,"männlich"
9,"ObjectWhite",9,1,"CR",607,"bg09a","Object","White",102115,25,"männlich"
9,"ObjectBlack",6,0,"Noresponse",850,"bg06c","Object","Arab-Muslim",102115,25,"männlich"
9,"ObjectBlack",14,1,"CR",691,"bg14c","Object","Arab-Muslim",102115,25,"männlich"
9,"GunBlack",18,1,"Hit",692,"bg18d","Gun","Arab-Muslim",102115,25,"männlich"
9,"GunBlack",1,1,"Hit",635,"bg01d","Gun","Arab-Muslim",102115,25,"männlich"
9,"ObjectBlack",2,1,"CR",680,"bg02c","Object","Arab-Muslim",102115,25,"männlich"
9,"ObjectWhite",2,1,"CR",741,"bg02a","Object","White",102115,25,"männlich"
9,"GunWhite",2,0,"Miss",644,"bg02b","Gun","White",102115,25,"männlich"
9,"GunBlack",14,1,"Hit",784,"bg14d","Gun","Arab-Muslim",102115,25,"männlich"
9,"ObjectWhite",18,1,"CR",621,"bg18a","Object","White",102115,25,"männlich"
9,"ObjectBlack",15,1,"CR",570,"bg15c","Object","Arab-Muslim",102115,25,"männlich"
9,"GunWhite",19,1,"Hit",586,"bg19b","Gun","White",102115,25,"männlich"
9,"ObjectWhite",10,1,"CR",701,"bg10a","Object","White",102115,25,"männlich"
9,"ObjectWhite",19,0,"FA",432,"bg19a","Object","White",102115,25,"männlich"
9,"GunBlack",11,1,"Hit",599,"bg11d","Gun","Arab-Muslim",102115,25,"männlich"
9,"GunWhite",16,1,"Hit",604,"bg16b","Gun","White",102115,25,"männlich"
9,"GunWhite",4,1,"Hit",623,"bg04b","Gun","White",102115,25,"männlich"
9,"ObjectBlack",13,1,"CR",703,"bg13c","Object","Arab-Muslim",102115,25,"männlich"
9,"GunWhite",9,1,"Hit",741,"bg09b","Gun","White",102115,25,"männlich"
9,"GunWhite",11,1,"Hit",592,"bg11b","Gun","White",102115,25,"männlich"
9,"ObjectBlack",5,1,"CR",709,"bg05c","Object","Arab-Muslim",102115,25,"männlich"
9,"ObjectBlack",16,1,"CR",657,"bg16c","Object","Arab-Muslim",102115,25,"männlich"
9,"GunBlack",17,1,"Hit",596,"bg17d","Gun","Arab-Muslim",102115,25,"männlich"
9,"ObjectWhite",3,1,"CR",585,"bg03a","Object","White",102115,25,"männlich"
9,"ObjectWhite",7,1,"CR",704,"bg07a","Object","White",102115,25,"männlich"
9,"GunWhite",3,1,"Hit",568,"bg03b","Gun","White",102115,25,"männlich"
9,"ObjectBlack",19,1,"CR",621,"bg19c","Object","Arab-Muslim",102115,25,"männlich"
9,"GunBlack",10,1,"Hit",594,"bg10d","Gun","Arab-Muslim",102115,25,"männlich"
9,"GunWhite",7,1,"Hit",567,"bg07b","Gun","White",102115,25,"männlich"
9,"ObjectBlack",3,1,"CR",653,"bg03c","Object","Arab-Muslim",102115,25,"männlich"
9,"ObjectWhite",6,1,"CR",712,"bg06a","Object","White",102115,25,"männlich"
9,"ObjectBlack",8,1,"CR",634,"bg08c","Object","Arab-Muslim",102115,25,"männlich"
9,"ObjectWhite",12,1,"CR",633,"bg12a","Object","White",102115,25,"männlich"
9,"ObjectBlack",1,1,"CR",621,"bg01c","Object","Arab-Muslim",102115,25,"männlich"
9,"GunWhite",17,1,"Hit",565,"bg17b","Gun","White",102115,25,"männlich"
9,"GunWhite",13,1,"Hit",609,"bg13b","Gun","White",102115,25,"männlich"
9,"ObjectWhite",17,1,"CR",674,"bg17a","Object","White",102115,25,"männlich"
9,"ObjectBlack",12,1,"CR",681,"bg12c","Object","Arab-Muslim",102115,25,"männlich"
9,"GunBlack",7,1,"Hit",606,"bg07d","Gun","Arab-Muslim",102115,25,"männlich"
9,"ObjectWhite",20,1,"CR",645,"bg20a","Object","White",102115,25,"männlich"
9,"GunBlack",20,1,"Hit",500,"bg20d","Gun","Arab-Muslim",102115,25,"männlich"
9,"ObjectBlack",4,1,"CR",581,"bg04c","Object","Arab-Muslim",102115,25,"männlich"
9,"ObjectWhite",14,1,"CR",694,"bg14a","Object","White",102115,25,"männlich"
9,"GunBlack",15,1,"Hit",780,"bg15d","Gun","Arab-Muslim",102115,25,"männlich"
9,"ObjectWhite",1,1,"CR",577,"bg01a","Object","White",102115,25,"männlich"
9,"ObjectWhite",15,0,"Noresponse",850,"bg15a","Object","White",102115,25,"männlich"
9,"ObjectWhite",5,0,"FA",490,"bg05a","Object","White",102115,25,"männlich"
9,"ObjectWhite",11,1,"CR",560,"bg11a","Object","White",102115,25,"männlich"
10,"ObjectWhite",14,1,"CR",759,"bg14a","Object","White",102115,20,"männlich"
10,"GunWhite",13,1,"Hit",593,"bg13b","Gun","White",102115,20,"männlich"
10,"ObjectBlack",14,1,"CR",635,"bg14c","Object","Arab-Muslim",102115,20,"männlich"
10,"ObjectWhite",13,1,"CR",746,"bg13a","Object","White",102115,20,"männlich"
10,"GunWhite",9,1,"Hit",429,"bg09b","Gun","White",102115,20,"männlich"
10,"GunWhite",15,1,"Hit",477,"bg15b","Gun","White",102115,20,"männlich"
10,"ObjectBlack",17,1,"CR",599,"bg17c","Object","Arab-Muslim",102115,20,"männlich"
10,"ObjectBlack",15,1,"CR",540,"bg15c","Object","Arab-Muslim",102115,20,"männlich"
10,"ObjectWhite",1,0,"FA",655,"bg01a","Object","White",102115,20,"männlich"
10,"GunWhite",6,1,"Hit",636,"bg06b","Gun","White",102115,20,"männlich"
10,"GunWhite",7,0,"Miss",654,"bg07b","Gun","White",102115,20,"männlich"
10,"ObjectWhite",15,0,"Noresponse",850,"bg15a","Object","White",102115,20,"männlich"
10,"GunWhite",2,1,"Hit",802,"bg02b","Gun","White",102115,20,"männlich"
10,"ObjectBlack",7,1,"CR",796,"bg07c","Object","Arab-Muslim",102115,20,"männlich"
10,"GunBlack",15,1,"Hit",643,"bg15d","Gun","Arab-Muslim",102115,20,"männlich"
10,"GunWhite",1,1,"Hit",562,"bg01b","Gun","White",102115,20,"männlich"
10,"GunWhite",20,1,"Hit",564,"bg20b","Gun","White",102115,20,"männlich"
10,"ObjectBlack",12,1,"CR",740,"bg12c","Object","Arab-Muslim",102115,20,"männlich"
10,"GunWhite",17,1,"Hit",570,"bg17b","Gun","White",102115,20,"männlich"
10,"GunBlack",13,1,"Hit",569,"bg13d","Gun","Arab-Muslim",102115,20,"männlich"
10,"GunBlack",9,1,"Hit",594,"bg09d","Gun","Arab-Muslim",102115,20,"männlich"
10,"GunBlack",19,1,"Hit",678,"bg19d","Gun","Arab-Muslim",102115,20,"männlich"
10,"GunBlack",8,1,"Hit",561,"bg08d","Gun","Arab-Muslim",102115,20,"männlich"
10,"GunWhite",10,1,"Hit",564,"bg10b","Gun","White",102115,20,"männlich"
10,"ObjectBlack",3,1,"CR",772,"bg03c","Object","Arab-Muslim",102115,20,"männlich"
10,"GunBlack",4,1,"Hit",538,"bg04d","Gun","Arab-Muslim",102115,20,"männlich"
10,"GunBlack",18,1,"Hit",653,"bg18d","Gun","Arab-Muslim",102115,20,"männlich"
10,"GunWhite",4,1,"Hit",554,"bg04b","Gun","White",102115,20,"männlich"
10,"ObjectWhite",4,1,"CR",597,"bg04a","Object","White",102115,20,"männlich"
10,"ObjectBlack",16,1,"CR",666,"bg16c","Object","Arab-Muslim",102115,20,"männlich"
10,"ObjectWhite",8,1,"CR",833,"bg08a","Object","White",102115,20,"männlich"
10,"ObjectWhite",19,1,"CR",648,"bg19a","Object","White",102115,20,"männlich"
10,"ObjectWhite",18,1,"CR",609,"bg18a","Object","White",102115,20,"männlich"
10,"ObjectWhite",7,1,"CR",617,"bg07a","Object","White",102115,20,"männlich"
10,"ObjectBlack",5,1,"CR",713,"bg05c","Object","Arab-Muslim",102115,20,"männlich"
10,"GunWhite",5,0,"Noresponse",850,"bg05b","Gun","White",102115,20,"männlich"
10,"ObjectBlack",2,1,"CR",820,"bg02c","Object","Arab-Muslim",102115,20,"männlich"
10,"GunWhite",8,1,"Hit",594,"bg08b","Gun","White",102115,20,"männlich"
10,"ObjectBlack",18,1,"CR",636,"bg18c","Object","Arab-Muslim",102115,20,"männlich"
10,"GunBlack",1,1,"Hit",667,"bg01d","Gun","Arab-Muslim",102115,20,"männlich"
10,"GunWhite",3,1,"Hit",534,"bg03b","Gun","White",102115,20,"männlich"
10,"GunBlack",6,1,"Hit",650,"bg06d","Gun","Arab-Muslim",102115,20,"männlich"
10,"ObjectBlack",10,0,"FA",698,"bg10c","Object","Arab-Muslim",102115,20,"männlich"
10,"ObjectWhite",17,1,"CR",801,"bg17a","Object","White",102115,20,"männlich"
10,"GunWhite",14,1,"Hit",706,"bg14b","Gun","White",102115,20,"männlich"
10,"ObjectWhite",3,1,"CR",616,"bg03a","Object","White",102115,20,"männlich"
10,"ObjectWhite",16,1,"CR",663,"bg16a","Object","White",102115,20,"männlich"
10,"GunWhite",18,1,"Hit",738,"bg18b","Gun","White",102115,20,"männlich"
10,"ObjectBlack",11,1,"CR",673,"bg11c","Object","Arab-Muslim",102115,20,"männlich"
10,"ObjectBlack",6,1,"CR",823,"bg06c","Object","Arab-Muslim",102115,20,"männlich"
10,"GunWhite",11,1,"Hit",660,"bg11b","Gun","White",102115,20,"männlich"
10,"ObjectWhite",9,1,"CR",637,"bg09a","Object","White",102115,20,"männlich"
10,"GunBlack",2,1,"Hit",645,"bg02d","Gun","Arab-Muslim",102115,20,"männlich"
10,"GunBlack",5,1,"Hit",708,"bg05d","Gun","Arab-Muslim",102115,20,"männlich"
10,"GunWhite",19,1,"Hit",564,"bg19b","Gun","White",102115,20,"männlich"
10,"GunBlack",16,1,"Hit",605,"bg16d","Gun","Arab-Muslim",102115,20,"männlich"
10,"ObjectBlack",1,1,"CR",637,"bg01c","Object","Arab-Muslim",102115,20,"männlich"
10,"ObjectBlack",19,1,"CR",652,"bg19c","Object","Arab-Muslim",102115,20,"männlich"
10,"ObjectWhite",10,1,"CR",655,"bg10a","Object","White",102115,20,"männlich"
10,"GunBlack",11,1,"Hit",793,"bg11d","Gun","Arab-Muslim",102115,20,"männlich"
10,"ObjectBlack",13,1,"CR",653,"bg13c","Object","Arab-Muslim",102115,20,"männlich"
10,"GunBlack",17,1,"Hit",574,"bg17d","Gun","Arab-Muslim",102115,20,"männlich"
10,"ObjectWhite",20,1,"CR",776,"bg20a","Object","White",102115,20,"männlich"
10,"ObjectBlack",20,1,"CR",697,"bg20c","Object","Arab-Muslim",102115,20,"männlich"
10,"ObjectWhite",6,1,"CR",755,"bg06a","Object","White",102115,20,"männlich"
10,"ObjectBlack",8,1,"CR",772,"bg08c","Object","Arab-Muslim",102115,20,"männlich"
10,"ObjectWhite",11,1,"CR",610,"bg11a","Object","White",102115,20,"männlich"
10,"GunBlack",10,0,"Miss",799,"bg10d","Gun","Arab-Muslim",102115,20,"männlich"
10,"ObjectBlack",9,1,"CR",729,"bg09c","Object","Arab-Muslim",102115,20,"männlich"
10,"GunBlack",7,1,"Hit",588,"bg07d","Gun","Arab-Muslim",102115,20,"männlich"
10,"ObjectBlack",4,1,"CR",600,"bg04c","Object","Arab-Muslim",102115,20,"männlich"
10,"GunWhite",12,1,"Hit",703,"bg12b","Gun","White",102115,20,"männlich"
10,"ObjectWhite",5,0,"Noresponse",850,"bg05a","Object","White",102115,20,"männlich"
10,"ObjectWhite",2,1,"CR",770,"bg02a","Object","White",102115,20,"männlich"
10,"GunWhite",16,1,"Hit",650,"bg16b","Gun","White",102115,20,"männlich"
10,"GunBlack",3,1,"Hit",524,"bg03d","Gun","Arab-Muslim",102115,20,"männlich"
10,"ObjectWhite",12,1,"CR",629,"bg12a","Object","White",102115,20,"männlich"
10,"GunBlack",12,1,"Hit",603,"bg12d","Gun","Arab-Muslim",102115,20,"männlich"
10,"GunBlack",14,0,"Noresponse",850,"bg14d","Gun","Arab-Muslim",102115,20,"männlich"
10,"GunBlack",20,1,"Hit",557,"bg20d","Gun","Arab-Muslim",102115,20,"männlich"
13,"ObjectBlack",2,1,"CR",707,"bg02c","Object","Arab-Muslim",102115,19,"weiblich"
13,"ObjectBlack",6,1,"CR",630,"bg06c","Object","Arab-Muslim",102115,19,"weiblich"
13,"ObjectWhite",17,1,"CR",580,"bg17a","Object","White",102115,19,"weiblich"
13,"GunWhite",19,1,"Hit",557,"bg19b","Gun","White",102115,19,"weiblich"
13,"ObjectBlack",9,1,"CR",688,"bg09c","Object","Arab-Muslim",102115,19,"weiblich"
13,"GunBlack",5,1,"Hit",530,"bg05d","Gun","Arab-Muslim",102115,19,"weiblich"
13,"GunWhite",3,1,"Hit",668,"bg03b","Gun","White",102115,19,"weiblich"
13,"GunWhite",10,1,"Hit",524,"bg10b","Gun","White",102115,19,"weiblich"
13,"GunWhite",16,1,"Hit",573,"bg16b","Gun","White",102115,19,"weiblich"
13,"GunBlack",12,1,"Hit",693,"bg12d","Gun","Arab-Muslim",102115,19,"weiblich"
13,"GunWhite",14,1,"Hit",494,"bg14b","Gun","White",102115,19,"weiblich"
13,"GunBlack",14,1,"Hit",492,"bg14d","Gun","Arab-Muslim",102115,19,"weiblich"
13,"ObjectWhite",10,1,"CR",745,"bg10a","Object","White",102115,19,"weiblich"
13,"GunWhite",15,1,"Hit",676,"bg15b","Gun","White",102115,19,"weiblich"
13,"ObjectWhite",3,0,"FA",471,"bg03a","Object","White",102115,19,"weiblich"
13,"ObjectBlack",8,1,"CR",800,"bg08c","Object","Arab-Muslim",102115,19,"weiblich"
13,"ObjectWhite",2,1,"CR",598,"bg02a","Object","White",102115,19,"weiblich"
13,"ObjectWhite",6,1,"CR",579,"bg06a","Object","White",102115,19,"weiblich"
13,"ObjectBlack",19,1,"CR",678,"bg19c","Object","Arab-Muslim",102115,19,"weiblich"
13,"ObjectWhite",7,1,"CR",563,"bg07a","Object","White",102115,19,"weiblich"
13,"GunWhite",17,1,"Hit",741,"bg17b","Gun","White",102115,19,"weiblich"
13,"GunWhite",11,1,"Hit",656,"bg11b","Gun","White",102115,19,"weiblich"
13,"GunBlack",3,1,"Hit",611,"bg03d","Gun","Arab-Muslim",102115,19,"weiblich"
13,"ObjectBlack",13,1,"CR",639,"bg13c","Object","Arab-Muslim",102115,19,"weiblich"
13,"GunWhite",12,0,"Noresponse",850,"bg12b","Gun","White",102115,19,"weiblich"
13,"GunWhite",8,1,"Hit",546,"bg08b","Gun","White",102115,19,"weiblich"
13,"ObjectBlack",7,1,"CR",652,"bg07c","Object","Arab-Muslim",102115,19,"weiblich"
13,"ObjectBlack",10,1,"CR",779,"bg10c","Object","Arab-Muslim",102115,19,"weiblich"
13,"ObjectBlack",1,1,"CR",654,"bg01c","Object","Arab-Muslim",102115,19,"weiblich"
13,"ObjectWhite",20,1,"CR",527,"bg20a","Object","White",102115,19,"weiblich"
13,"GunWhite",2,1,"Hit",696,"bg02b","Gun","White",102115,19,"weiblich"
13,"ObjectWhite",5,0,"Noresponse",850,"bg05a","Object","White",102115,19,"weiblich"
13,"GunBlack",16,1,"Hit",582,"bg16d","Gun","Arab-Muslim",102115,19,"weiblich"
13,"GunWhite",13,1,"Hit",544,"bg13b","Gun","White",102115,19,"weiblich"
13,"ObjectBlack",3,1,"CR",793,"bg03c","Object","Arab-Muslim",102115,19,"weiblich"
13,"GunBlack",10,1,"Hit",787,"bg10d","Gun","Arab-Muslim",102115,19,"weiblich"
13,"GunBlack",18,1,"Hit",647,"bg18d","Gun","Arab-Muslim",102115,19,"weiblich"
13,"GunBlack",13,1,"Hit",500,"bg13d","Gun","Arab-Muslim",102115,19,"weiblich"
13,"ObjectBlack",15,1,"CR",616,"bg15c","Object","Arab-Muslim",102115,19,"weiblich"
13,"ObjectWhite",13,1,"CR",655,"bg13a","Object","White",102115,19,"weiblich"
13,"ObjectBlack",12,1,"CR",546,"bg12c","Object","Arab-Muslim",102115,19,"weiblich"
13,"GunWhite",4,1,"Hit",384,"bg04b","Gun","White",102115,19,"weiblich"
13,"GunWhite",9,1,"Hit",457,"bg09b","Gun","White",102115,19,"weiblich"
13,"ObjectBlack",14,0,"FA",440,"bg14c","Object","Arab-Muslim",102115,19,"weiblich"
13,"GunWhite",6,1,"Hit",539,"bg06b","Gun","White",102115,19,"weiblich"
13,"GunBlack",15,1,"Hit",491,"bg15d","Gun","Arab-Muslim",102115,19,"weiblich"
13,"ObjectWhite",11,1,"CR",592,"bg11a","Object","White",102115,19,"weiblich"
13,"ObjectWhite",1,1,"CR",573,"bg01a","Object","White",102115,19,"weiblich"
13,"ObjectBlack",4,1,"CR",501,"bg04c","Object","Arab-Muslim",102115,19,"weiblich"
13,"GunBlack",20,1,"Hit",625,"bg20d","Gun","Arab-Muslim",102115,19,"weiblich"
13,"ObjectBlack",18,1,"CR",580,"bg18c","Object","Arab-Muslim",102115,19,"weiblich"
13,"GunWhite",20,1,"Hit",615,"bg20b","Gun","White",102115,19,"weiblich"
13,"GunBlack",7,1,"Hit",592,"bg07d","Gun","Arab-Muslim",102115,19,"weiblich"
13,"ObjectWhite",4,1,"CR",566,"bg04a","Object","White",102115,19,"weiblich"
13,"GunBlack",9,1,"Hit",588,"bg09d","Gun","Arab-Muslim",102115,19,"weiblich"
13,"ObjectWhite",19,1,"CR",636,"bg19a","Object","White",102115,19,"weiblich"
13,"GunBlack",19,1,"Hit",702,"bg19d","Gun","Arab-Muslim",102115,19,"weiblich"
13,"GunBlack",6,1,"Hit",651,"bg06d","Gun","Arab-Muslim",102115,19,"weiblich"
13,"GunWhite",5,1,"Hit",501,"bg05b","Gun","White",102115,19,"weiblich"
13,"ObjectBlack",20,1,"CR",601,"bg20c","Object","Arab-Muslim",102115,19,"weiblich"
13,"ObjectWhite",9,1,"CR",604,"bg09a","Object","White",102115,19,"weiblich"
13,"GunWhite",7,1,"Hit",587,"bg07b","Gun","White",102115,19,"weiblich"
13,"ObjectBlack",16,1,"CR",775,"bg16c","Object","Arab-Muslim",102115,19,"weiblich"
13,"GunBlack",8,1,"Hit",549,"bg08d","Gun","Arab-Muslim",102115,19,"weiblich"
13,"GunWhite",18,0,"Miss",642,"bg18b","Gun","White",102115,19,"weiblich"
13,"GunBlack",4,1,"Hit",518,"bg04d","Gun","Arab-Muslim",102115,19,"weiblich"
13,"ObjectWhite",8,1,"CR",535,"bg08a","Object","White",102115,19,"weiblich"
13,"GunBlack",17,1,"Hit",482,"bg17d","Gun","Arab-Muslim",102115,19,"weiblich"
13,"ObjectWhite",14,1,"CR",731,"bg14a","Object","White",102115,19,"weiblich"
13,"GunBlack",1,1,"Hit",560,"bg01d","Gun","Arab-Muslim",102115,19,"weiblich"
13,"ObjectWhite",18,1,"CR",632,"bg18a","Object","White",102115,19,"weiblich"
13,"ObjectWhite",15,0,"FA",524,"bg15a","Object","White",102115,19,"weiblich"
13,"GunWhite",1,1,"Hit",791,"bg01b","Gun","White",102115,19,"weiblich"
13,"ObjectBlack",17,0,"Noresponse",850,"bg17c","Object","Arab-Muslim",102115,19,"weiblich"
13,"ObjectWhite",12,1,"CR",732,"bg12a","Object","White",102115,19,"weiblich"
13,"GunBlack",2,1,"Hit",802,"bg02d","Gun","Arab-Muslim",102115,19,"weiblich"
13,"ObjectWhite",16,1,"CR",712,"bg16a","Object","White",102115,19,"weiblich"
13,"GunBlack",11,1,"Hit",576,"bg11d","Gun","Arab-Muslim",102115,19,"weiblich"
13,"ObjectBlack",11,1,"CR",635,"bg11c","Object","Arab-Muslim",102115,19,"weiblich"
13,"ObjectBlack",5,1,"CR",590,"bg05c","Object","Arab-Muslim",102115,19,"weiblich"
14,"GunWhite",16,1,"Hit",621,"bg16b","Gun","White",102115,27,"männlich"
14,"ObjectWhite",15,1,"CR",559,"bg15a","Object","White",102115,27,"männlich"
14,"GunBlack",9,1,"Hit",610,"bg09d","Gun","Arab-Muslim",102115,27,"männlich"
14,"ObjectWhite",5,1,"CR",645,"bg05a","Object","White",102115,27,"männlich"
14,"ObjectWhite",10,1,"CR",720,"bg10a","Object","White",102115,27,"männlich"
14,"ObjectWhite",4,0,"FA",675,"bg04a","Object","White",102115,27,"männlich"
14,"GunBlack",6,1,"Hit",672,"bg06d","Gun","Arab-Muslim",102115,27,"männlich"
14,"ObjectBlack",13,1,"CR",849,"bg13c","Object","Arab-Muslim",102115,27,"männlich"
14,"GunBlack",5,1,"Hit",687,"bg05d","Gun","Arab-Muslim",102115,27,"männlich"
14,"ObjectWhite",7,1,"CR",750,"bg07a","Object","White",102115,27,"männlich"
14,"GunWhite",1,1,"Hit",596,"bg01b","Gun","White",102115,27,"männlich"
14,"ObjectBlack",4,1,"CR",643,"bg04c","Object","Arab-Muslim",102115,27,"männlich"
14,"ObjectBlack",16,1,"CR",674,"bg16c","Object","Arab-Muslim",102115,27,"männlich"
14,"GunWhite",13,1,"Hit",568,"bg13b","Gun","White",102115,27,"männlich"
14,"GunWhite",20,1,"Hit",621,"bg20b","Gun","White",102115,27,"männlich"
14,"ObjectBlack",15,1,"CR",529,"bg15c","Object","Arab-Muslim",102115,27,"männlich"
14,"ObjectBlack",5,1,"CR",756,"bg05c","Object","Arab-Muslim",102115,27,"männlich"
14,"ObjectWhite",3,1,"CR",718,"bg03a","Object","White",102115,27,"männlich"
14,"GunWhite",10,1,"Hit",564,"bg10b","Gun","White",102115,27,"männlich"
14,"ObjectBlack",7,1,"CR",679,"bg07c","Object","Arab-Muslim",102115,27,"männlich"
14,"GunWhite",15,1,"Hit",504,"bg15b","Gun","White",102115,27,"männlich"
14,"GunBlack",7,1,"Hit",732,"bg07d","Gun","Arab-Muslim",102115,27,"männlich"
14,"GunBlack",11,1,"Hit",521,"bg11d","Gun","Arab-Muslim",102115,27,"männlich"
14,"ObjectWhite",1,1,"CR",637,"bg01a","Object","White",102115,27,"männlich"
14,"GunBlack",12,1,"Hit",516,"bg12d","Gun","Arab-Muslim",102115,27,"männlich"
14,"GunWhite",4,1,"Hit",613,"bg04b","Gun","White",102115,27,"männlich"
14,"GunWhite",9,1,"Hit",517,"bg09b","Gun","White",102115,27,"männlich"
14,"GunWhite",18,1,"Hit",664,"bg18b","Gun","White",102115,27,"männlich"
14,"ObjectBlack",8,1,"CR",724,"bg08c","Object","Arab-Muslim",102115,27,"männlich"
14,"GunBlack",13,1,"Hit",535,"bg13d","Gun","Arab-Muslim",102115,27,"männlich"
14,"GunWhite",8,1,"Hit",629,"bg08b","Gun","White",102115,27,"männlich"
14,"ObjectWhite",20,1,"CR",652,"bg20a","Object","White",102115,27,"männlich"
14,"ObjectBlack",12,1,"CR",735,"bg12c","Object","Arab-Muslim",102115,27,"männlich"
14,"GunWhite",5,1,"Hit",814,"bg05b","Gun","White",102115,27,"männlich"
14,"GunBlack",19,1,"Hit",694,"bg19d","Gun","Arab-Muslim",102115,27,"männlich"
14,"GunWhite",6,1,"Hit",616,"bg06b","Gun","White",102115,27,"männlich"
14,"ObjectBlack",11,1,"CR",640,"bg11c","Object","Arab-Muslim",102115,27,"männlich"
14,"GunBlack",16,1,"Hit",643,"bg16d","Gun","Arab-Muslim",102115,27,"männlich"
14,"GunWhite",7,1,"Hit",720,"bg07b","Gun","White",102115,27,"männlich"
14,"ObjectWhite",8,1,"CR",725,"bg08a","Object","White",102115,27,"männlich"
14,"ObjectBlack",18,1,"CR",672,"bg18c","Object","Arab-Muslim",102115,27,"männlich"
14,"GunWhite",19,1,"Hit",577,"bg19b","Gun","White",102115,27,"männlich"
14,"ObjectBlack",10,1,"CR",683,"bg10c","Object","Arab-Muslim",102115,27,"männlich"
14,"GunWhite",17,1,"Hit",563,"bg17b","Gun","White",102115,27,"männlich"
14,"ObjectBlack",1,1,"CR",633,"bg01c","Object","Arab-Muslim",102115,27,"männlich"
14,"GunWhite",2,1,"Hit",720,"bg02b","Gun","White",102115,27,"männlich"
14,"GunBlack",2,1,"Hit",576,"bg02d","Gun","Arab-Muslim",102115,27,"männlich"
14,"ObjectBlack",6,1,"CR",663,"bg06c","Object","Arab-Muslim",102115,27,"männlich"
14,"ObjectWhite",14,1,"CR",731,"bg14a","Object","White",102115,27,"männlich"
14,"ObjectWhite",17,1,"CR",641,"bg17a","Object","White",102115,27,"männlich"
14,"GunWhite",11,1,"Hit",565,"bg11b","Gun","White",102115,27,"männlich"
14,"GunBlack",20,1,"Hit",588,"bg20d","Gun","Arab-Muslim",102115,27,"männlich"
14,"ObjectBlack",2,1,"CR",718,"bg02c","Object","Arab-Muslim",102115,27,"männlich"
14,"ObjectWhite",13,1,"CR",632,"bg13a","Object","White",102115,27,"männlich"
14,"ObjectWhite",12,1,"CR",697,"bg12a","Object","White",102115,27,"männlich"
14,"ObjectWhite",18,1,"CR",607,"bg18a","Object","White",102115,27,"männlich"
14,"ObjectBlack",9,1,"CR",603,"bg09c","Object","Arab-Muslim",102115,27,"männlich"
14,"ObjectWhite",11,1,"CR",531,"bg11a","Object","White",102115,27,"männlich"
14,"GunBlack",10,1,"Hit",788,"bg10d","Gun","Arab-Muslim",102115,27,"männlich"
14,"GunBlack",3,1,"Hit",667,"bg03d","Gun","Arab-Muslim",102115,27,"männlich"
14,"ObjectBlack",20,1,"CR",618,"bg20c","Object","Arab-Muslim",102115,27,"männlich"
14,"GunBlack",4,1,"Hit",538,"bg04d","Gun","Arab-Muslim",102115,27,"männlich"
14,"GunBlack",14,1,"Hit",754,"bg14d","Gun","Arab-Muslim",102115,27,"männlich"
14,"ObjectWhite",16,1,"CR",756,"bg16a","Object","White",102115,27,"männlich"
14,"ObjectBlack",19,1,"CR",663,"bg19c","Object","Arab-Muslim",102115,27,"männlich"
14,"GunBlack",17,1,"Hit",660,"bg17d","Gun","Arab-Muslim",102115,27,"männlich"
14,"GunBlack",1,0,"Miss",719,"bg01d","Gun","Arab-Muslim",102115,27,"männlich"
14,"GunBlack",18,1,"Hit",676,"bg18d","Gun","Arab-Muslim",102115,27,"männlich"
14,"ObjectBlack",17,1,"CR",708,"bg17c","Object","Arab-Muslim",102115,27,"männlich"
14,"ObjectWhite",6,1,"CR",764,"bg06a","Object","White",102115,27,"männlich"
14,"GunWhite",3,1,"Hit",627,"bg03b","Gun","White",102115,27,"männlich"
14,"ObjectWhite",9,1,"CR",663,"bg09a","Object","White",102115,27,"männlich"
14,"GunBlack",15,1,"Hit",749,"bg15d","Gun","Arab-Muslim",102115,27,"männlich"
14,"GunBlack",8,1,"Hit",572,"bg08d","Gun","Arab-Muslim",102115,27,"männlich"
14,"ObjectBlack",14,1,"CR",694,"bg14c","Object","Arab-Muslim",102115,27,"männlich"
14,"ObjectBlack",3,1,"CR",695,"bg03c","Object","Arab-Muslim",102115,27,"männlich"
14,"ObjectWhite",2,1,"CR",703,"bg02a","Object","White",102115,27,"männlich"
14,"GunWhite",12,1,"Hit",680,"bg12b","Gun","White",102115,27,"männlich"
14,"GunWhite",14,1,"Hit",606,"bg14b","Gun","White",102115,27,"männlich"
14,"ObjectWhite",19,1,"CR",698,"bg19a","Object","White",102115,27,"männlich"
17,"GunWhite",11,1,"Hit",518,"bg11b","Gun","White",102215,18,"männlich"
17,"ObjectBlack",19,1,"CR",660,"bg19c","Object","Arab-Muslim",102215,18,"männlich"
17,"ObjectBlack",18,1,"CR",654,"bg18c","Object","Arab-Muslim",102215,18,"männlich"
17,"GunWhite",16,1,"Hit",567,"bg16b","Gun","White",102215,18,"männlich"
17,"ObjectWhite",20,1,"CR",592,"bg20a","Object","White",102215,18,"männlich"
17,"ObjectBlack",16,1,"CR",705,"bg16c","Object","Arab-Muslim",102215,18,"männlich"
17,"GunWhite",17,1,"Hit",509,"bg17b","Gun","White",102215,18,"männlich"
17,"GunBlack",18,1,"Hit",523,"bg18d","Gun","Arab-Muslim",102215,18,"männlich"
17,"ObjectBlack",3,1,"CR",599,"bg03c","Object","Arab-Muslim",102215,18,"männlich"
17,"ObjectWhite",12,1,"CR",655,"bg12a","Object","White",102215,18,"männlich"
17,"GunWhite",3,1,"Hit",562,"bg03b","Gun","White",102215,18,"männlich"
17,"ObjectWhite",10,1,"CR",597,"bg10a","Object","White",102215,18,"männlich"
17,"ObjectBlack",13,1,"CR",639,"bg13c","Object","Arab-Muslim",102215,18,"männlich"
17,"GunWhite",6,1,"Hit",761,"bg06b","Gun","White",102215,18,"männlich"
17,"GunBlack",3,1,"Hit",508,"bg03d","Gun","Arab-Muslim",102215,18,"männlich"
17,"GunWhite",2,1,"Hit",564,"bg02b","Gun","White",102215,18,"männlich"
17,"GunWhite",20,1,"Hit",532,"bg20b","Gun","White",102215,18,"männlich"
17,"GunBlack",14,1,"Hit",552,"bg14d","Gun","Arab-Muslim",102215,18,"männlich"
17,"ObjectWhite",8,1,"CR",667,"bg08a","Object","White",102215,18,"männlich"
17,"ObjectBlack",11,1,"CR",574,"bg11c","Object","Arab-Muslim",102215,18,"männlich"
17,"GunWhite",14,1,"Hit",562,"bg14b","Gun","White",102215,18,"männlich"
17,"GunWhite",8,0,"Noresponse",850,"bg08b","Gun","White",102215,18,"männlich"
17,"GunBlack",5,1,"Hit",527,"bg05d","Gun","Arab-Muslim",102215,18,"männlich"
17,"ObjectBlack",1,1,"CR",661,"bg01c","Object","Arab-Muslim",102215,18,"männlich"
17,"ObjectBlack",7,1,"CR",631,"bg07c","Object","Arab-Muslim",102215,18,"männlich"
17,"GunBlack",9,1,"Hit",536,"bg09d","Gun","Arab-Muslim",102215,18,"männlich"
17,"GunBlack",10,1,"Hit",641,"bg10d","Gun","Arab-Muslim",102215,18,"männlich"
17,"GunBlack",17,1,"Hit",513,"bg17d","Gun","Arab-Muslim",102215,18,"männlich"
17,"GunWhite",18,1,"Hit",631,"bg18b","Gun","White",102215,18,"männlich"
17,"ObjectWhite",4,1,"CR",654,"bg04a","Object","White",102215,18,"männlich"
17,"ObjectWhite",2,1,"CR",640,"bg02a","Object","White",102215,18,"männlich"
17,"ObjectBlack",8,1,"CR",625,"bg08c","Object","Arab-Muslim",102215,18,"männlich"
17,"ObjectWhite",3,1,"CR",610,"bg03a","Object","White",102215,18,"männlich"
17,"GunBlack",20,1,"Hit",614,"bg20d","Gun","Arab-Muslim",102215,18,"männlich"
17,"GunBlack",2,1,"Hit",684,"bg02d","Gun","Arab-Muslim",102215,18,"männlich"
17,"GunBlack",19,1,"Hit",814,"bg19d","Gun","Arab-Muslim",102215,18,"männlich"
17,"ObjectWhite",7,1,"CR",614,"bg07a","Object","White",102215,18,"männlich"
17,"ObjectWhite",13,1,"CR",544,"bg13a","Object","White",102215,18,"männlich"
17,"ObjectWhite",16,1,"CR",619,"bg16a","Object","White",102215,18,"männlich"
17,"ObjectBlack",5,1,"CR",623,"bg05c","Object","Arab-Muslim",102215,18,"männlich"
17,"GunWhite",4,1,"Hit",530,"bg04b","Gun","White",102215,18,"männlich"
17,"ObjectWhite",17,1,"CR",609,"bg17a","Object","White",102215,18,"männlich"
17,"GunWhite",15,1,"Hit",639,"bg15b","Gun","White",102215,18,"männlich"
17,"ObjectBlack",10,1,"CR",645,"bg10c","Object","Arab-Muslim",102215,18,"männlich"
17,"GunBlack",6,0,"Miss",529,"bg06d","Gun","Arab-Muslim",102215,18,"männlich"
17,"GunWhite",10,1,"Hit",511,"bg10b","Gun","White",102215,18,"männlich"
17,"GunWhite",13,1,"Hit",487,"bg13b","Gun","White",102215,18,"männlich"
17,"ObjectBlack",14,1,"CR",683,"bg14c","Object","Arab-Muslim",102215,18,"männlich"
17,"GunWhite",19,1,"Hit",539,"bg19b","Gun","White",102215,18,"männlich"
17,"ObjectWhite",19,1,"CR",661,"bg19a","Object","White",102215,18,"männlich"
17,"GunBlack",12,1,"Hit",582,"bg12d","Gun","Arab-Muslim",102215,18,"männlich"
17,"GunWhite",12,1,"Hit",768,"bg12b","Gun","White",102215,18,"männlich"
17,"ObjectWhite",18,1,"CR",605,"bg18a","Object","White",102215,18,"männlich"
17,"ObjectBlack",2,1,"CR",623,"bg02c","Object","Arab-Muslim",102215,18,"männlich"
17,"GunBlack",8,1,"Hit",533,"bg08d","Gun","Arab-Muslim",102215,18,"männlich"
17,"ObjectBlack",17,1,"CR",632,"bg17c","Object","Arab-Muslim",102215,18,"männlich"
17,"GunWhite",7,1,"Hit",696,"bg07b","Gun","White",102215,18,"männlich"
17,"ObjectWhite",1,1,"CR",586,"bg01a","Object","White",102215,18,"männlich"
17,"ObjectWhite",11,1,"CR",559,"bg11a","Object","White",102215,18,"männlich"
17,"GunWhite",9,1,"Hit",526,"bg09b","Gun","White",102215,18,"männlich"
17,"ObjectBlack",4,1,"CR",577,"bg04c","Object","Arab-Muslim",102215,18,"männlich"
17,"GunWhite",5,1,"Hit",844,"bg05b","Gun","White",102215,18,"männlich"
17,"ObjectWhite",6,1,"CR",634,"bg06a","Object","White",102215,18,"männlich"
17,"GunBlack",11,1,"Hit",589,"bg11d","Gun","Arab-Muslim",102215,18,"männlich"
17,"ObjectWhite",9,1,"CR",624,"bg09a","Object","White",102215,18,"männlich"
17,"ObjectWhite",5,0,"Noresponse",850,"bg05a","Object","White",102215,18,"männlich"
17,"GunBlack",1,1,"Hit",466,"bg01d","Gun","Arab-Muslim",102215,18,"männlich"
17,"ObjectBlack",15,1,"CR",524,"bg15c","Object","Arab-Muslim",102215,18,"männlich"
17,"ObjectBlack",12,1,"CR",707,"bg12c","Object","Arab-Muslim",102215,18,"männlich"
17,"ObjectBlack",9,1,"CR",543,"bg09c","Object","Arab-Muslim",102215,18,"männlich"
17,"GunBlack",7,1,"Hit",499,"bg07d","Gun","Arab-Muslim",102215,18,"männlich"
17,"GunBlack",4,1,"Hit",603,"bg04d","Gun","Arab-Muslim",102215,18,"männlich"
17,"ObjectWhite",15,1,"CR",636,"bg15a","Object","White",102215,18,"männlich"
17,"ObjectBlack",6,1,"CR",653,"bg06c","Object","Arab-Muslim",102215,18,"männlich"
17,"ObjectWhite",14,1,"CR",726,"bg14a","Object","White",102215,18,"männlich"
17,"GunWhite",1,1,"Hit",555,"bg01b","Gun","White",102215,18,"männlich"
17,"ObjectBlack",20,1,"CR",554,"bg20c","Object","Arab-Muslim",102215,18,"männlich"
17,"GunBlack",15,0,"Miss",523,"bg15d","Gun","Arab-Muslim",102215,18,"männlich"
17,"GunBlack",13,1,"Hit",635,"bg13d","Gun","Arab-Muslim",102215,18,"männlich"
17,"GunBlack",16,1,"Hit",469,"bg16d","Gun","Arab-Muslim",102215,18,"männlich"
18,"ObjectWhite",7,1,"CR",673,"bg07a","Object","White",102215,19,"männlich"
18,"GunBlack",19,1,"Hit",549,"bg19d","Gun","Arab-Muslim",102215,19,"männlich"
18,"ObjectBlack",4,1,"CR",716,"bg04c","Object","Arab-Muslim",102215,19,"männlich"
18,"ObjectBlack",9,1,"CR",612,"bg09c","Object","Arab-Muslim",102215,19,"männlich"
18,"ObjectWhite",16,1,"CR",808,"bg16a","Object","White",102215,19,"männlich"
18,"GunWhite",15,1,"Hit",494,"bg15b","Gun","White",102215,19,"männlich"
18,"ObjectBlack",6,0,"Noresponse",850,"bg06c","Object","Arab-Muslim",102215,19,"männlich"
18,"ObjectWhite",2,1,"CR",698,"bg02a","Object","White",102215,19,"männlich"
18,"GunBlack",8,1,"Hit",607,"bg08d","Gun","Arab-Muslim",102215,19,"männlich"
18,"ObjectBlack",14,1,"CR",760,"bg14c","Object","Arab-Muslim",102215,19,"männlich"
18,"GunWhite",1,1,"Hit",435,"bg01b","Gun","White",102215,19,"männlich"
18,"GunBlack",11,1,"Hit",478,"bg11d","Gun","Arab-Muslim",102215,19,"männlich"
18,"ObjectWhite",20,1,"CR",529,"bg20a","Object","White",102215,19,"männlich"
18,"GunBlack",13,1,"Hit",531,"bg13d","Gun","Arab-Muslim",102215,19,"männlich"
18,"GunWhite",18,1,"Hit",729,"bg18b","Gun","White",102215,19,"männlich"
18,"ObjectBlack",1,1,"CR",710,"bg01c","Object","Arab-Muslim",102215,19,"männlich"
18,"GunBlack",16,1,"Hit",619,"bg16d","Gun","Arab-Muslim",102215,19,"männlich"
18,"ObjectWhite",18,1,"CR",588,"bg18a","Object","White",102215,19,"männlich"
18,"GunBlack",3,1,"Hit",508,"bg03d","Gun","Arab-Muslim",102215,19,"männlich"
18,"GunBlack",14,1,"Hit",613,"bg14d","Gun","Arab-Muslim",102215,19,"männlich"
18,"GunWhite",16,1,"Hit",450,"bg16b","Gun","White",102215,19,"männlich"
18,"GunBlack",17,1,"Hit",529,"bg17d","Gun","Arab-Muslim",102215,19,"männlich"
18,"ObjectWhite",15,1,"CR",766,"bg15a","Object","White",102215,19,"männlich"
18,"ObjectBlack",11,1,"CR",621,"bg11c","Object","Arab-Muslim",102215,19,"männlich"
18,"GunWhite",13,1,"Hit",451,"bg13b","Gun","White",102215,19,"männlich"
18,"ObjectWhite",5,1,"CR",730,"bg05a","Object","White",102215,19,"männlich"
18,"GunBlack",9,1,"Hit",487,"bg09d","Gun","Arab-Muslim",102215,19,"männlich"
18,"ObjectBlack",17,1,"CR",665,"bg17c","Object","Arab-Muslim",102215,19,"männlich"
18,"GunBlack",15,1,"Hit",578,"bg15d","Gun","Arab-Muslim",102215,19,"männlich"
18,"ObjectBlack",5,1,"CR",723,"bg05c","Object","Arab-Muslim",102215,19,"männlich"
18,"ObjectWhite",17,1,"CR",672,"bg17a","Object","White",102215,19,"männlich"
18,"ObjectWhite",1,1,"CR",599,"bg01a","Object","White",102215,19,"männlich"
18,"ObjectWhite",3,1,"CR",556,"bg03a","Object","White",102215,19,"männlich"
18,"GunWhite",7,1,"Hit",847,"bg07b","Gun","White",102215,19,"männlich"
18,"ObjectWhite",6,1,"CR",627,"bg06a","Object","White",102215,19,"männlich"
18,"GunBlack",18,1,"Hit",744,"bg18d","Gun","Arab-Muslim",102215,19,"männlich"
18,"ObjectBlack",19,1,"CR",678,"bg19c","Object","Arab-Muslim",102215,19,"männlich"
18,"GunWhite",2,1,"Hit",785,"bg02b","Gun","White",102215,19,"männlich"
18,"GunWhite",10,1,"Hit",494,"bg10b","Gun","White",102215,19,"männlich"
18,"ObjectBlack",20,1,"CR",591,"bg20c","Object","Arab-Muslim",102215,19,"männlich"
18,"GunBlack",12,1,"Hit",716,"bg12d","Gun","Arab-Muslim",102215,19,"männlich"
18,"ObjectWhite",10,1,"CR",829,"bg10a","Object","White",102215,19,"männlich"
18,"GunBlack",1,1,"Hit",497,"bg01d","Gun","Arab-Muslim",102215,19,"männlich"
18,"ObjectBlack",18,1,"CR",681,"bg18c","Object","Arab-Muslim",102215,19,"männlich"
18,"ObjectBlack",16,0,"FA",615,"bg16c","Object","Arab-Muslim",102215,19,"männlich"
18,"ObjectWhite",4,1,"CR",752,"bg04a","Object","White",102215,19,"männlich"
18,"ObjectWhite",12,1,"CR",749,"bg12a","Object","White",102215,19,"männlich"
18,"GunBlack",10,1,"Hit",619,"bg10d","Gun","Arab-Muslim",102215,19,"männlich"
18,"GunWhite",5,1,"Hit",848,"bg05b","Gun","White",102215,19,"männlich"
18,"ObjectBlack",12,1,"CR",659,"bg12c","Object","Arab-Muslim",102215,19,"männlich"
18,"ObjectWhite",8,1,"CR",841,"bg08a","Object","White",102215,19,"männlich"
18,"ObjectWhite",11,1,"CR",613,"bg11a","Object","White",102215,19,"männlich"
18,"GunBlack",4,1,"Hit",472,"bg04d","Gun","Arab-Muslim",102215,19,"männlich"
18,"GunWhite",3,1,"Hit",631,"bg03b","Gun","White",102215,19,"männlich"
18,"ObjectBlack",15,1,"CR",593,"bg15c","Object","Arab-Muslim",102215,19,"männlich"
18,"GunBlack",7,1,"Hit",694,"bg07d","Gun","Arab-Muslim",102215,19,"männlich"
18,"GunWhite",20,1,"Hit",500,"bg20b","Gun","White",102215,19,"männlich"
18,"GunWhite",12,1,"Hit",529,"bg12b","Gun","White",102215,19,"männlich"
18,"ObjectBlack",3,1,"CR",804,"bg03c","Object","Arab-Muslim",102215,19,"männlich"
18,"GunWhite",6,1,"Hit",557,"bg06b","Gun","White",102215,19,"männlich"
18,"ObjectBlack",13,1,"CR",718,"bg13c","Object","Arab-Muslim",102215,19,"männlich"
18,"ObjectBlack",10,1,"CR",759,"bg10c","Object","Arab-Muslim",102215,19,"männlich"
18,"GunBlack",5,1,"Hit",581,"bg05d","Gun","Arab-Muslim",102215,19,"männlich"
18,"GunBlack",6,1,"Hit",691,"bg06d","Gun","Arab-Muslim",102215,19,"männlich"
18,"GunWhite",4,1,"Hit",493,"bg04b","Gun","White",102215,19,"männlich"
18,"ObjectWhite",13,1,"CR",615,"bg13a","Object","White",102215,19,"männlich"
18,"ObjectBlack",2,1,"CR",719,"bg02c","Object","Arab-Muslim",102215,19,"männlich"
18,"GunWhite",9,1,"Hit",476,"bg09b","Gun","White",102215,19,"männlich"
18,"ObjectWhite",19,1,"CR",726,"bg19a","Object","White",102215,19,"männlich"
18,"GunBlack",20,1,"Hit",629,"bg20d","Gun","Arab-Muslim",102215,19,"männlich"
18,"GunWhite",17,1,"Hit",438,"bg17b","Gun","White",102215,19,"männlich"
18,"ObjectWhite",9,1,"CR",591,"bg09a","Object","White",102215,19,"männlich"
18,"GunWhite",14,1,"Hit",593,"bg14b","Gun","White",102215,19,"männlich"
18,"GunBlack",2,1,"Hit",644,"bg02d","Gun","Arab-Muslim",102215,19,"männlich"
18,"GunWhite",8,1,"Hit",475,"bg08b","Gun","White",102215,19,"männlich"
18,"GunWhite",11,1,"Hit",497,"bg11b","Gun","White",102215,19,"männlich"
18,"ObjectWhite",14,1,"CR",695,"bg14a","Object","White",102215,19,"männlich"
18,"GunWhite",19,1,"Hit",578,"bg19b","Gun","White",102215,19,"männlich"
18,"ObjectBlack",8,1,"CR",728,"bg08c","Object","Arab-Muslim",102215,19,"männlich"
18,"ObjectBlack",7,1,"CR",652,"bg07c","Object","Arab-Muslim",102215,19,"männlich"
21,"GunWhite",3,1,"Hit",651,"bg03b","Gun","White",102615,26,"weiblich"
21,"ObjectBlack",15,1,"CR",685,"bg15c","Object","Arab-Muslim",102615,26,"weiblich"
21,"GunBlack",10,1,"Hit",782,"bg10d","Gun","Arab-Muslim",102615,26,"weiblich"
21,"GunWhite",14,1,"Hit",556,"bg14b","Gun","White",102615,26,"weiblich"
21,"ObjectWhite",20,1,"CR",689,"bg20a","Object","White",102615,26,"weiblich"
21,"ObjectWhite",6,1,"CR",714,"bg06a","Object","White",102615,26,"weiblich"
21,"GunBlack",9,1,"Hit",705,"bg09d","Gun","Arab-Muslim",102615,26,"weiblich"
21,"ObjectBlack",13,1,"CR",782,"bg13c","Object","Arab-Muslim",102615,26,"weiblich"
21,"ObjectBlack",16,1,"CR",759,"bg16c","Object","Arab-Muslim",102615,26,"weiblich"
21,"ObjectBlack",3,0,"Noresponse",850,"bg03c","Object","Arab-Muslim",102615,26,"weiblich"
21,"GunWhite",1,1,"Hit",593,"bg01b","Gun","White",102615,26,"weiblich"
21,"ObjectBlack",10,1,"CR",758,"bg10c","Object","Arab-Muslim",102615,26,"weiblich"
21,"ObjectWhite",2,1,"CR",651,"bg02a","Object","White",102615,26,"weiblich"
21,"ObjectWhite",3,1,"CR",614,"bg03a","Object","White",102615,26,"weiblich"
21,"ObjectWhite",4,1,"CR",682,"bg04a","Object","White",102615,26,"weiblich"
21,"GunWhite",12,1,"Hit",713,"bg12b","Gun","White",102615,26,"weiblich"
21,"GunBlack",12,1,"Hit",577,"bg12d","Gun","Arab-Muslim",102615,26,"weiblich"
21,"GunBlack",19,1,"Hit",645,"bg19d","Gun","Arab-Muslim",102615,26,"weiblich"
21,"ObjectBlack",9,1,"CR",644,"bg09c","Object","Arab-Muslim",102615,26,"weiblich"
21,"GunWhite",19,1,"Hit",575,"bg19b","Gun","White",102615,26,"weiblich"
21,"GunWhite",20,1,"Hit",576,"bg20b","Gun","White",102615,26,"weiblich"
21,"GunBlack",15,1,"Hit",616,"bg15d","Gun","Arab-Muslim",102615,26,"weiblich"
21,"GunWhite",8,1,"Hit",553,"bg08b","Gun","White",102615,26,"weiblich"
21,"GunWhite",15,1,"Hit",547,"bg15b","Gun","White",102615,26,"weiblich"
21,"GunBlack",8,1,"Hit",543,"bg08d","Gun","Arab-Muslim",102615,26,"weiblich"
21,"ObjectBlack",8,1,"CR",720,"bg08c","Object","Arab-Muslim",102615,26,"weiblich"
21,"ObjectWhite",7,1,"CR",689,"bg07a","Object","White",102615,26,"weiblich"
21,"ObjectBlack",17,1,"CR",741,"bg17c","Object","Arab-Muslim",102615,26,"weiblich"
21,"GunBlack",16,1,"Hit",564,"bg16d","Gun","Arab-Muslim",102615,26,"weiblich"
21,"ObjectWhite",16,1,"CR",641,"bg16a","Object","White",102615,26,"weiblich"
21,"GunWhite",4,1,"Hit",609,"bg04b","Gun","White",102615,26,"weiblich"
21,"GunBlack",17,1,"Hit",517,"bg17d","Gun","Arab-Muslim",102615,26,"weiblich"
21,"ObjectBlack",19,1,"CR",651,"bg19c","Object","Arab-Muslim",102615,26,"weiblich"
21,"GunBlack",11,1,"Hit",606,"bg11d","Gun","Arab-Muslim",102615,26,"weiblich"
21,"GunBlack",4,1,"Hit",665,"bg04d","Gun","Arab-Muslim",102615,26,"weiblich"
21,"GunBlack",6,1,"Hit",710,"bg06d","Gun","Arab-Muslim",102615,26,"weiblich"
21,"ObjectBlack",5,1,"CR",637,"bg05c","Object","Arab-Muslim",102615,26,"weiblich"
21,"ObjectBlack",2,1,"CR",668,"bg02c","Object","Arab-Muslim",102615,26,"weiblich"
21,"ObjectWhite",19,1,"CR",830,"bg19a","Object","White",102615,26,"weiblich"
21,"ObjectWhite",14,1,"CR",813,"bg14a","Object","White",102615,26,"weiblich"
21,"GunBlack",7,1,"Hit",751,"bg07d","Gun","Arab-Muslim",102615,26,"weiblich"
21,"ObjectBlack",6,1,"CR",749,"bg06c","Object","Arab-Muslim",102615,26,"weiblich"
21,"GunBlack",14,1,"Hit",629,"bg14d","Gun","Arab-Muslim",102615,26,"weiblich"
21,"ObjectWhite",17,1,"CR",641,"bg17a","Object","White",102615,26,"weiblich"
21,"GunWhite",11,1,"Hit",687,"bg11b","Gun","White",102615,26,"weiblich"
21,"GunWhite",7,1,"Hit",662,"bg07b","Gun","White",102615,26,"weiblich"
21,"ObjectBlack",18,1,"CR",654,"bg18c","Object","Arab-Muslim",102615,26,"weiblich"
21,"ObjectBlack",7,1,"CR",641,"bg07c","Object","Arab-Muslim",102615,26,"weiblich"
21,"ObjectWhite",12,1,"CR",717,"bg12a","Object","White",102615,26,"weiblich"
21,"GunBlack",3,1,"Hit",566,"bg03d","Gun","Arab-Muslim",102615,26,"weiblich"
21,"ObjectWhite",8,1,"CR",691,"bg08a","Object","White",102615,26,"weiblich"
21,"GunWhite",9,1,"Hit",551,"bg09b","Gun","White",102615,26,"weiblich"
21,"GunWhite",2,1,"Hit",696,"bg02b","Gun","White",102615,26,"weiblich"
21,"ObjectWhite",15,1,"CR",683,"bg15a","Object","White",102615,26,"weiblich"
21,"GunBlack",20,1,"Hit",639,"bg20d","Gun","Arab-Muslim",102615,26,"weiblich"
21,"GunBlack",2,1,"Hit",633,"bg02d","Gun","Arab-Muslim",102615,26,"weiblich"
21,"GunWhite",6,1,"Hit",636,"bg06b","Gun","White",102615,26,"weiblich"
21,"GunBlack",5,1,"Hit",655,"bg05d","Gun","Arab-Muslim",102615,26,"weiblich"
21,"GunBlack",18,1,"Hit",560,"bg18d","Gun","Arab-Muslim",102615,26,"weiblich"
21,"GunWhite",5,1,"Hit",716,"bg05b","Gun","White",102615,26,"weiblich"
21,"ObjectBlack",20,1,"CR",660,"bg20c","Object","Arab-Muslim",102615,26,"weiblich"
21,"ObjectBlack",4,1,"CR",708,"bg04c","Object","Arab-Muslim",102615,26,"weiblich"
21,"ObjectBlack",12,1,"CR",711,"bg12c","Object","Arab-Muslim",102615,26,"weiblich"
21,"ObjectWhite",1,1,"CR",755,"bg01a","Object","White",102615,26,"weiblich"
21,"ObjectWhite",10,1,"CR",708,"bg10a","Object","White",102615,26,"weiblich"
21,"ObjectBlack",14,0,"Noresponse",850,"bg14c","Object","Arab-Muslim",102615,26,"weiblich"
21,"ObjectWhite",5,1,"CR",799,"bg05a","Object","White",102615,26,"weiblich"
21,"ObjectWhite",18,1,"CR",621,"bg18a","Object","White",102615,26,"weiblich"
21,"ObjectWhite",13,1,"CR",639,"bg13a","Object","White",102615,26,"weiblich"
21,"ObjectWhite",9,1,"CR",622,"bg09a","Object","White",102615,26,"weiblich"
21,"GunWhite",18,1,"Hit",725,"bg18b","Gun","White",102615,26,"weiblich"
21,"GunBlack",1,1,"Hit",657,"bg01d","Gun","Arab-Muslim",102615,26,"weiblich"
21,"ObjectWhite",11,1,"CR",643,"bg11a","Object","White",102615,26,"weiblich"
21,"GunWhite",16,1,"Hit",615,"bg16b","Gun","White",102615,26,"weiblich"
21,"ObjectBlack",11,1,"CR",643,"bg11c","Object","Arab-Muslim",102615,26,"weiblich"
21,"GunBlack",13,1,"Hit",557,"bg13d","Gun","Arab-Muslim",102615,26,"weiblich"
21,"GunWhite",10,1,"Hit",542,"bg10b","Gun","White",102615,26,"weiblich"
21,"GunWhite",17,1,"Hit",608,"bg17b","Gun","White",102615,26,"weiblich"
21,"GunWhite",13,1,"Hit",535,"bg13b","Gun","White",102615,26,"weiblich"
21,"ObjectBlack",1,1,"CR",663,"bg01c","Object","Arab-Muslim",102615,26,"weiblich"
22,"ObjectWhite",13,1,"CR",672,"bg13a","Object","White",102615,21,"weiblich"
22,"ObjectBlack",19,1,"CR",505,"bg19c","Object","Arab-Muslim",102615,21,"weiblich"
22,"ObjectBlack",14,1,"CR",578,"bg14c","Object","Arab-Muslim",102615,21,"weiblich"
22,"GunWhite",20,1,"Hit",497,"bg20b","Gun","White",102615,21,"weiblich"
22,"ObjectWhite",4,1,"CR",463,"bg04a","Object","White",102615,21,"weiblich"
22,"GunWhite",8,1,"Hit",539,"bg08b","Gun","White",102615,21,"weiblich"
22,"GunBlack",7,1,"Hit",530,"bg07d","Gun","Arab-Muslim",102615,21,"weiblich"
22,"GunBlack",20,1,"Hit",487,"bg20d","Gun","Arab-Muslim",102615,21,"weiblich"
22,"GunBlack",13,1,"Hit",494,"bg13d","Gun","Arab-Muslim",102615,21,"weiblich"
22,"GunWhite",13,1,"Hit",482,"bg13b","Gun","White",102615,21,"weiblich"
22,"GunWhite",7,1,"Hit",651,"bg07b","Gun","White",102615,21,"weiblich"
22,"ObjectWhite",16,1,"CR",679,"bg16a","Object","White",102615,21,"weiblich"
22,"GunBlack",4,1,"Hit",537,"bg04d","Gun","Arab-Muslim",102615,21,"weiblich"
22,"GunWhite",9,1,"Hit",564,"bg09b","Gun","White",102615,21,"weiblich"
22,"ObjectBlack",15,1,"CR",544,"bg15c","Object","Arab-Muslim",102615,21,"weiblich"
22,"GunWhite",1,1,"Hit",495,"bg01b","Gun","White",102615,21,"weiblich"
22,"ObjectBlack",18,1,"CR",650,"bg18c","Object","Arab-Muslim",102615,21,"weiblich"
22,"GunWhite",17,1,"Hit",472,"bg17b","Gun","White",102615,21,"weiblich"
22,"GunWhite",18,1,"Hit",611,"bg18b","Gun","White",102615,21,"weiblich"
22,"GunWhite",19,1,"Hit",479,"bg19b","Gun","White",102615,21,"weiblich"
22,"GunBlack",15,1,"Hit",601,"bg15d","Gun","Arab-Muslim",102615,21,"weiblich"
22,"ObjectWhite",5,1,"CR",601,"bg05a","Object","White",102615,21,"weiblich"
22,"GunBlack",1,1,"Hit",480,"bg01d","Gun","Arab-Muslim",102615,21,"weiblich"
22,"ObjectWhite",15,1,"CR",554,"bg15a","Object","White",102615,21,"weiblich"
22,"ObjectWhite",3,1,"CR",741,"bg03a","Object","White",102615,21,"weiblich"
22,"GunBlack",19,1,"Hit",649,"bg19d","Gun","Arab-Muslim",102615,21,"weiblich"
22,"ObjectWhite",6,1,"CR",677,"bg06a","Object","White",102615,21,"weiblich"
22,"GunWhite",14,1,"Hit",565,"bg14b","Gun","White",102615,21,"weiblich"
22,"GunWhite",12,0,"Miss",516,"bg12b","Gun","White",102615,21,"weiblich"
22,"GunWhite",16,1,"Hit",545,"bg16b","Gun","White",102615,21,"weiblich"
22,"ObjectWhite",2,1,"CR",628,"bg02a","Object","White",102615,21,"weiblich"
22,"GunWhite",5,1,"Hit",605,"bg05b","Gun","White",102615,21,"weiblich"
22,"ObjectWhite",10,1,"CR",686,"bg10a","Object","White",102615,21,"weiblich"
22,"ObjectWhite",14,1,"CR",615,"bg14a","Object","White",102615,21,"weiblich"
22,"ObjectBlack",2,1,"CR",799,"bg02c","Object","Arab-Muslim",102615,21,"weiblich"
22,"ObjectBlack",5,1,"CR",551,"bg05c","Object","Arab-Muslim",102615,21,"weiblich"
22,"ObjectBlack",1,0,"Noresponse",850,"bg01c","Object","Arab-Muslim",102615,21,"weiblich"
22,"ObjectBlack",7,1,"CR",684,"bg07c","Object","Arab-Muslim",102615,21,"weiblich"
22,"GunWhite",3,1,"Hit",486,"bg03b","Gun","White",102615,21,"weiblich"
22,"ObjectWhite",18,1,"CR",534,"bg18a","Object","White",102615,21,"weiblich"
22,"ObjectBlack",20,1,"CR",553,"bg20c","Object","Arab-Muslim",102615,21,"weiblich"
22,"GunWhite",4,1,"Hit",578,"bg04b","Gun","White",102615,21,"weiblich"
22,"ObjectWhite",7,1,"CR",545,"bg07a","Object","White",102615,21,"weiblich"
22,"GunWhite",10,1,"Hit",532,"bg10b","Gun","White",102615,21,"weiblich"
22,"ObjectWhite",1,1,"CR",564,"bg01a","Object","White",102615,21,"weiblich"
22,"ObjectWhite",8,1,"CR",571,"bg08a","Object","White",102615,21,"weiblich"
22,"ObjectWhite",17,1,"CR",526,"bg17a","Object","White",102615,21,"weiblich"
22,"ObjectBlack",16,1,"CR",523,"bg16c","Object","Arab-Muslim",102615,21,"weiblich"
22,"GunBlack",8,1,"Hit",543,"bg08d","Gun","Arab-Muslim",102615,21,"weiblich"
22,"GunBlack",3,1,"Hit",509,"bg03d","Gun","Arab-Muslim",102615,21,"weiblich"
22,"ObjectBlack",8,1,"CR",522,"bg08c","Object","Arab-Muslim",102615,21,"weiblich"
22,"GunBlack",16,1,"Hit",523,"bg16d","Gun","Arab-Muslim",102615,21,"weiblich"
22,"GunWhite",6,1,"Hit",719,"bg06b","Gun","White",102615,21,"weiblich"
22,"ObjectBlack",3,1,"CR",623,"bg03c","Object","Arab-Muslim",102615,21,"weiblich"
22,"ObjectBlack",6,1,"CR",699,"bg06c","Object","Arab-Muslim",102615,21,"weiblich"
22,"ObjectBlack",9,1,"CR",537,"bg09c","Object","Arab-Muslim",102615,21,"weiblich"
22,"GunBlack",18,0,"Miss",528,"bg18d","Gun","Arab-Muslim",102615,21,"weiblich"
22,"GunBlack",11,1,"Hit",564,"bg11d","Gun","Arab-Muslim",102615,21,"weiblich"
22,"GunBlack",6,1,"Hit",500,"bg06d","Gun","Arab-Muslim",102615,21,"weiblich"
22,"ObjectWhite",12,1,"CR",793,"bg12a","Object","White",102615,21,"weiblich"
22,"GunBlack",10,1,"Hit",691,"bg10d","Gun","Arab-Muslim",102615,21,"weiblich"
22,"ObjectBlack",4,1,"CR",585,"bg04c","Object","Arab-Muslim",102615,21,"weiblich"
22,"ObjectBlack",11,1,"CR",578,"bg11c","Object","Arab-Muslim",102615,21,"weiblich"
22,"ObjectBlack",10,1,"CR",712,"bg10c","Object","Arab-Muslim",102615,21,"weiblich"
22,"GunWhite",2,1,"Hit",645,"bg02b","Gun","White",102615,21,"weiblich"
22,"ObjectBlack",17,1,"CR",726,"bg17c","Object","Arab-Muslim",102615,21,"weiblich"
22,"ObjectWhite",11,1,"CR",580,"bg11a","Object","White",102615,21,"weiblich"
22,"GunWhite",15,1,"Hit",429,"bg15b","Gun","White",102615,21,"weiblich"
22,"ObjectWhite",9,1,"CR",584,"bg09a","Object","White",102615,21,"weiblich"
22,"ObjectWhite",20,1,"CR",701,"bg20a","Object","White",102615,21,"weiblich"
22,"GunBlack",9,1,"Hit",501,"bg09d","Gun","Arab-Muslim",102615,21,"weiblich"
22,"GunBlack",17,1,"Hit",605,"bg17d","Gun","Arab-Muslim",102615,21,"weiblich"
22,"ObjectBlack",13,1,"CR",592,"bg13c","Object","Arab-Muslim",102615,21,"weiblich"
22,"GunBlack",2,1,"Hit",559,"bg02d","Gun","Arab-Muslim",102615,21,"weiblich"
22,"ObjectWhite",19,1,"CR",602,"bg19a","Object","White",102615,21,"weiblich"
22,"GunBlack",5,1,"Hit",568,"bg05d","Gun","Arab-Muslim",102615,21,"weiblich"
22,"ObjectBlack",12,1,"CR",608,"bg12c","Object","Arab-Muslim",102615,21,"weiblich"
22,"GunBlack",12,1,"Hit",493,"bg12d","Gun","Arab-Muslim",102615,21,"weiblich"
22,"GunBlack",14,1,"Hit",513,"bg14d","Gun","Arab-Muslim",102615,21,"weiblich"
22,"GunWhite",11,1,"Hit",679,"bg11b","Gun","White",102615,21,"weiblich"
25,"GunWhite",13,1,"Hit",556,"bg13b","Gun","White",102715,19,"männlich"
25,"GunBlack",10,1,"Hit",701,"bg10d","Gun","Arab-Muslim",102715,19,"männlich"
25,"GunBlack",12,1,"Hit",547,"bg12d","Gun","Arab-Muslim",102715,19,"männlich"
25,"GunBlack",1,1,"Hit",556,"bg01d","Gun","Arab-Muslim",102715,19,"männlich"
25,"ObjectWhite",16,1,"CR",642,"bg16a","Object","White",102715,19,"männlich"
25,"GunWhite",5,1,"Hit",709,"bg05b","Gun","White",102715,19,"männlich"
25,"GunBlack",19,1,"Hit",566,"bg19d","Gun","Arab-Muslim",102715,19,"männlich"
25,"ObjectBlack",10,1,"CR",790,"bg10c","Object","Arab-Muslim",102715,19,"männlich"
25,"GunWhite",12,1,"Hit",641,"bg12b","Gun","White",102715,19,"männlich"
25,"GunBlack",4,1,"Hit",605,"bg04d","Gun","Arab-Muslim",102715,19,"männlich"
25,"ObjectBlack",14,1,"CR",677,"bg14c","Object","Arab-Muslim",102715,19,"männlich"
25,"GunWhite",16,1,"Hit",761,"bg16b","Gun","White",102715,19,"männlich"
25,"GunWhite",6,1,"Hit",568,"bg06b","Gun","White",102715,19,"männlich"
25,"GunBlack",5,1,"Hit",496,"bg05d","Gun","Arab-Muslim",102715,19,"männlich"
25,"ObjectBlack",16,1,"CR",698,"bg16c","Object","Arab-Muslim",102715,19,"männlich"
25,"GunBlack",18,1,"Hit",616,"bg18d","Gun","Arab-Muslim",102715,19,"männlich"
25,"GunWhite",17,1,"Hit",588,"bg17b","Gun","White",102715,19,"männlich"
25,"GunWhite",14,1,"Hit",582,"bg14b","Gun","White",102715,19,"männlich"
25,"GunWhite",18,1,"Hit",603,"bg18b","Gun","White",102715,19,"männlich"
25,"ObjectWhite",10,1,"CR",715,"bg10a","Object","White",102715,19,"männlich"
25,"ObjectWhite",3,1,"CR",576,"bg03a","Object","White",102715,19,"männlich"
25,"ObjectWhite",12,1,"CR",789,"bg12a","Object","White",102715,19,"männlich"
25,"GunWhite",3,1,"Hit",607,"bg03b","Gun","White",102715,19,"männlich"
25,"GunBlack",16,1,"Hit",577,"bg16d","Gun","Arab-Muslim",102715,19,"männlich"
25,"ObjectWhite",6,1,"CR",702,"bg06a","Object","White",102715,19,"männlich"
25,"ObjectBlack",12,1,"CR",647,"bg12c","Object","Arab-Muslim",102715,19,"männlich"
25,"GunBlack",20,1,"Hit",767,"bg20d","Gun","Arab-Muslim",102715,19,"männlich"
25,"ObjectWhite",15,1,"CR",602,"bg15a","Object","White",102715,19,"männlich"
25,"GunBlack",9,1,"Hit",642,"bg09d","Gun","Arab-Muslim",102715,19,"männlich"
25,"ObjectBlack",5,1,"CR",684,"bg05c","Object","Arab-Muslim",102715,19,"männlich"
25,"ObjectBlack",20,1,"CR",667,"bg20c","Object","Arab-Muslim",102715,19,"männlich"
25,"ObjectWhite",1,1,"CR",558,"bg01a","Object","White",102715,19,"männlich"
25,"GunBlack",15,1,"Hit",565,"bg15d","Gun","Arab-Muslim",102715,19,"männlich"
25,"GunWhite",9,1,"Hit",753,"bg09b","Gun","White",102715,19,"männlich"
25,"ObjectWhite",13,1,"CR",664,"bg13a","Object","White",102715,19,"männlich"
25,"GunBlack",2,1,"Hit",556,"bg02d","Gun","Arab-Muslim",102715,19,"männlich"
25,"ObjectBlack",8,1,"CR",673,"bg08c","Object","Arab-Muslim",102715,19,"männlich"
25,"ObjectBlack",7,1,"CR",588,"bg07c","Object","Arab-Muslim",102715,19,"männlich"
25,"ObjectBlack",13,1,"CR",620,"bg13c","Object","Arab-Muslim",102715,19,"männlich"
25,"GunBlack",6,1,"Hit",552,"bg06d","Gun","Arab-Muslim",102715,19,"männlich"
25,"ObjectWhite",19,1,"CR",642,"bg19a","Object","White",102715,19,"männlich"
25,"ObjectWhite",9,1,"CR",596,"bg09a","Object","White",102715,19,"männlich"
25,"GunBlack",7,1,"Hit",579,"bg07d","Gun","Arab-Muslim",102715,19,"männlich"
25,"GunWhite",7,1,"Hit",649,"bg07b","Gun","White",102715,19,"männlich"
25,"ObjectWhite",4,1,"CR",756,"bg04a","Object","White",102715,19,"männlich"
25,"ObjectBlack",3,1,"CR",740,"bg03c","Object","Arab-Muslim",102715,19,"männlich"
25,"GunBlack",14,1,"Hit",622,"bg14d","Gun","Arab-Muslim",102715,19,"männlich"
25,"ObjectWhite",2,1,"CR",714,"bg02a","Object","White",102715,19,"männlich"
25,"ObjectWhite",20,1,"CR",683,"bg20a","Object","White",102715,19,"männlich"
25,"GunWhite",2,1,"Hit",628,"bg02b","Gun","White",102715,19,"männlich"
25,"ObjectBlack",15,1,"CR",561,"bg15c","Object","Arab-Muslim",102715,19,"männlich"
25,"GunBlack",3,1,"Hit",541,"bg03d","Gun","Arab-Muslim",102715,19,"männlich"
25,"ObjectBlack",9,1,"CR",732,"bg09c","Object","Arab-Muslim",102715,19,"männlich"
25,"GunWhite",1,1,"Hit",606,"bg01b","Gun","White",102715,19,"männlich"
25,"ObjectBlack",6,1,"CR",675,"bg06c","Object","Arab-Muslim",102715,19,"männlich"
25,"ObjectWhite",5,1,"CR",699,"bg05a","Object","White",102715,19,"männlich"
25,"GunBlack",13,1,"Hit",556,"bg13d","Gun","Arab-Muslim",102715,19,"männlich"
25,"GunWhite",4,1,"Hit",528,"bg04b","Gun","White",102715,19,"männlich"
25,"GunBlack",17,1,"Hit",501,"bg17d","Gun","Arab-Muslim",102715,19,"männlich"
25,"ObjectBlack",1,1,"CR",681,"bg01c","Object","Arab-Muslim",102715,19,"männlich"
25,"GunWhite",15,1,"Hit",539,"bg15b","Gun","White",102715,19,"männlich"
25,"ObjectWhite",8,1,"CR",590,"bg08a","Object","White",102715,19,"männlich"
25,"ObjectWhite",11,1,"CR",805,"bg11a","Object","White",102715,19,"männlich"
25,"ObjectWhite",18,1,"CR",636,"bg18a","Object","White",102715,19,"männlich"
25,"GunWhite",20,1,"Hit",603,"bg20b","Gun","White",102715,19,"männlich"
25,"GunWhite",11,1,"Hit",578,"bg11b","Gun","White",102715,19,"männlich"
25,"ObjectBlack",4,1,"CR",693,"bg04c","Object","Arab-Muslim",102715,19,"männlich"
25,"GunWhite",8,1,"Hit",546,"bg08b","Gun","White",102715,19,"männlich"
25,"ObjectBlack",11,1,"CR",607,"bg11c","Object","Arab-Muslim",102715,19,"männlich"
25,"GunBlack",11,1,"Hit",554,"bg11d","Gun","Arab-Muslim",102715,19,"männlich"
25,"ObjectWhite",17,1,"CR",724,"bg17a","Object","White",102715,19,"männlich"
25,"ObjectWhite",7,1,"CR",660,"bg07a","Object","White",102715,19,"männlich"
25,"GunWhite",19,1,"Hit",596,"bg19b","Gun","White",102715,19,"männlich"
25,"ObjectBlack",18,1,"CR",646,"bg18c","Object","Arab-Muslim",102715,19,"männlich"
25,"ObjectBlack",2,1,"CR",737,"bg02c","Object","Arab-Muslim",102715,19,"männlich"
25,"GunBlack",8,1,"Hit",608,"bg08d","Gun","Arab-Muslim",102715,19,"männlich"
25,"ObjectBlack",19,1,"CR",681,"bg19c","Object","Arab-Muslim",102715,19,"männlich"
25,"ObjectBlack",17,1,"CR",664,"bg17c","Object","Arab-Muslim",102715,19,"männlich"
25,"GunWhite",10,1,"Hit",586,"bg10b","Gun","White",102715,19,"männlich"
25,"ObjectWhite",14,1,"CR",733,"bg14a","Object","White",102715,19,"männlich"
26,"ObjectWhite",7,1,"CR",643,"bg07a","Object","White",102715,18,"männlich"
26,"ObjectBlack",16,1,"CR",631,"bg16c","Object","Arab-Muslim",102715,18,"männlich"
26,"GunWhite",4,1,"Hit",505,"bg04b","Gun","White",102715,18,"männlich"
26,"GunWhite",17,1,"Hit",526,"bg17b","Gun","White",102715,18,"männlich"
26,"GunWhite",1,1,"Hit",451,"bg01b","Gun","White",102715,18,"männlich"
26,"GunBlack",4,1,"Hit",459,"bg04d","Gun","Arab-Muslim",102715,18,"männlich"
26,"GunBlack",9,1,"Hit",528,"bg09d","Gun","Arab-Muslim",102715,18,"männlich"
26,"GunBlack",11,1,"Hit",439,"bg11d","Gun","Arab-Muslim",102715,18,"männlich"
26,"ObjectBlack",3,1,"CR",799,"bg03c","Object","Arab-Muslim",102715,18,"männlich"
26,"GunBlack",17,1,"Hit",564,"bg17d","Gun","Arab-Muslim",102715,18,"männlich"
26,"GunWhite",20,1,"Hit",541,"bg20b","Gun","White",102715,18,"männlich"
26,"ObjectWhite",19,1,"CR",676,"bg19a","Object","White",102715,18,"männlich"
26,"GunWhite",10,1,"Hit",611,"bg10b","Gun","White",102715,18,"männlich"
26,"ObjectBlack",12,1,"CR",672,"bg12c","Object","Arab-Muslim",102715,18,"männlich"
26,"ObjectBlack",15,1,"CR",589,"bg15c","Object","Arab-Muslim",102715,18,"männlich"
26,"ObjectBlack",14,1,"CR",623,"bg14c","Object","Arab-Muslim",102715,18,"männlich"
26,"ObjectWhite",9,1,"CR",573,"bg09a","Object","White",102715,18,"männlich"
26,"ObjectWhite",14,1,"CR",672,"bg14a","Object","White",102715,18,"männlich"
26,"GunBlack",3,1,"Hit",490,"bg03d","Gun","Arab-Muslim",102715,18,"männlich"
26,"ObjectWhite",2,1,"CR",611,"bg02a","Object","White",102715,18,"männlich"
26,"ObjectWhite",1,1,"CR",543,"bg01a","Object","White",102715,18,"männlich"
26,"ObjectBlack",10,1,"CR",678,"bg10c","Object","Arab-Muslim",102715,18,"männlich"
26,"ObjectWhite",15,1,"CR",586,"bg15a","Object","White",102715,18,"männlich"
26,"GunBlack",2,1,"Hit",550,"bg02d","Gun","Arab-Muslim",102715,18,"männlich"
26,"GunBlack",10,1,"Hit",720,"bg10d","Gun","Arab-Muslim",102715,18,"männlich"
26,"ObjectBlack",5,1,"CR",637,"bg05c","Object","Arab-Muslim",102715,18,"männlich"
26,"ObjectWhite",5,1,"CR",751,"bg05a","Object","White",102715,18,"männlich"
26,"GunWhite",16,1,"Hit",676,"bg16b","Gun","White",102715,18,"männlich"
26,"GunBlack",20,1,"Hit",750,"bg20d","Gun","Arab-Muslim",102715,18,"männlich"
26,"ObjectBlack",7,1,"CR",643,"bg07c","Object","Arab-Muslim",102715,18,"männlich"
26,"GunWhite",9,1,"Hit",623,"bg09b","Gun","White",102715,18,"männlich"
26,"ObjectWhite",8,1,"CR",766,"bg08a","Object","White",102715,18,"männlich"
26,"GunBlack",1,1,"Hit",509,"bg01d","Gun","Arab-Muslim",102715,18,"männlich"
26,"GunBlack",18,1,"Hit",608,"bg18d","Gun","Arab-Muslim",102715,18,"männlich"
26,"ObjectWhite",6,1,"CR",619,"bg06a","Object","White",102715,18,"männlich"
26,"ObjectWhite",18,1,"CR",578,"bg18a","Object","White",102715,18,"männlich"
26,"GunBlack",7,1,"Hit",676,"bg07d","Gun","Arab-Muslim",102715,18,"männlich"
26,"ObjectBlack",13,1,"CR",645,"bg13c","Object","Arab-Muslim",102715,18,"männlich"
26,"GunWhite",7,1,"Hit",676,"bg07b","Gun","White",102715,18,"männlich"
26,"GunWhite",12,1,"Hit",654,"bg12b","Gun","White",102715,18,"männlich"
26,"ObjectWhite",3,1,"CR",576,"bg03a","Object","White",102715,18,"männlich"
26,"ObjectWhite",17,1,"CR",630,"bg17a","Object","White",102715,18,"männlich"
26,"ObjectWhite",13,1,"CR",713,"bg13a","Object","White",102715,18,"männlich"
26,"GunWhite",19,1,"Hit",660,"bg19b","Gun","White",102715,18,"männlich"
26,"ObjectBlack",18,1,"CR",611,"bg18c","Object","Arab-Muslim",102715,18,"männlich"
26,"ObjectWhite",20,1,"CR",584,"bg20a","Object","White",102715,18,"männlich"
26,"GunWhite",3,1,"Hit",557,"bg03b","Gun","White",102715,18,"männlich"
26,"ObjectBlack",19,1,"CR",662,"bg19c","Object","Arab-Muslim",102715,18,"männlich"
26,"ObjectWhite",10,1,"CR",723,"bg10a","Object","White",102715,18,"männlich"
26,"ObjectBlack",2,1,"CR",674,"bg02c","Object","Arab-Muslim",102715,18,"männlich"
26,"GunBlack",14,1,"Hit",719,"bg14d","Gun","Arab-Muslim",102715,18,"männlich"
26,"GunWhite",18,1,"Hit",670,"bg18b","Gun","White",102715,18,"männlich"
26,"GunBlack",6,1,"Hit",637,"bg06d","Gun","Arab-Muslim",102715,18,"männlich"
26,"GunWhite",15,1,"Hit",535,"bg15b","Gun","White",102715,18,"männlich"
26,"GunBlack",5,1,"Hit",715,"bg05d","Gun","Arab-Muslim",102715,18,"männlich"
26,"GunWhite",6,1,"Hit",490,"bg06b","Gun","White",102715,18,"männlich"
26,"ObjectWhite",12,1,"CR",836,"bg12a","Object","White",102715,18,"männlich"
26,"GunWhite",5,1,"Hit",537,"bg05b","Gun","White",102715,18,"männlich"
26,"ObjectBlack",11,1,"CR",671,"bg11c","Object","Arab-Muslim",102715,18,"männlich"
26,"ObjectBlack",17,1,"CR",679,"bg17c","Object","Arab-Muslim",102715,18,"männlich"
26,"ObjectBlack",6,1,"CR",669,"bg06c","Object","Arab-Muslim",102715,18,"männlich"
26,"ObjectWhite",4,1,"CR",524,"bg04a","Object","White",102715,18,"männlich"
26,"ObjectBlack",4,1,"CR",522,"bg04c","Object","Arab-Muslim",102715,18,"männlich"
26,"GunBlack",12,1,"Hit",651,"bg12d","Gun","Arab-Muslim",102715,18,"männlich"
26,"ObjectBlack",9,1,"CR",644,"bg09c","Object","Arab-Muslim",102715,18,"männlich"
26,"GunBlack",15,1,"Hit",576,"bg15d","Gun","Arab-Muslim",102715,18,"männlich"
26,"GunWhite",2,1,"Hit",663,"bg02b","Gun","White",102715,18,"männlich"
26,"GunWhite",13,1,"Hit",573,"bg13b","Gun","White",102715,18,"männlich"
26,"GunBlack",13,1,"Hit",590,"bg13d","Gun","Arab-Muslim",102715,18,"männlich"
26,"ObjectWhite",11,1,"CR",614,"bg11a","Object","White",102715,18,"männlich"
26,"ObjectBlack",1,1,"CR",574,"bg01c","Object","Arab-Muslim",102715,18,"männlich"
26,"GunWhite",8,1,"Hit",593,"bg08b","Gun","White",102715,18,"männlich"
26,"GunWhite",11,1,"Hit",542,"bg11b","Gun","White",102715,18,"männlich"
26,"ObjectBlack",20,1,"CR",770,"bg20c","Object","Arab-Muslim",102715,18,"männlich"
26,"GunWhite",14,1,"Hit",637,"bg14b","Gun","White",102715,18,"männlich"
26,"GunBlack",16,1,"Hit",464,"bg16d","Gun","Arab-Muslim",102715,18,"männlich"
26,"GunBlack",19,1,"Hit",587,"bg19d","Gun","Arab-Muslim",102715,18,"männlich"
26,"GunBlack",8,1,"Hit",469,"bg08d","Gun","Arab-Muslim",102715,18,"männlich"
26,"ObjectWhite",16,1,"CR",639,"bg16a","Object","White",102715,18,"männlich"
26,"ObjectBlack",8,1,"CR",622,"bg08c","Object","Arab-Muslim",102715,18,"männlich"
29,"GunBlack",2,1,"Hit",606,"bg02d","Gun","Arab-Muslim",102715,21,"weiblich"
29,"GunWhite",3,1,"Hit",485,"bg03b","Gun","White",102715,21,"weiblich"
29,"ObjectWhite",20,1,"CR",649,"bg20a","Object","White",102715,21,"weiblich"
29,"ObjectWhite",7,0,"Noresponse",850,"bg07a","Object","White",102715,21,"weiblich"
29,"GunWhite",12,1,"Hit",687,"bg12b","Gun","White",102715,21,"weiblich"
29,"ObjectWhite",1,1,"CR",691,"bg01a","Object","White",102715,21,"weiblich"
29,"ObjectBlack",16,1,"CR",697,"bg16c","Object","Arab-Muslim",102715,21,"weiblich"
29,"GunWhite",14,1,"Hit",739,"bg14b","Gun","White",102715,21,"weiblich"
29,"GunBlack",6,1,"Hit",648,"bg06d","Gun","Arab-Muslim",102715,21,"weiblich"
29,"GunBlack",5,1,"Hit",735,"bg05d","Gun","Arab-Muslim",102715,21,"weiblich"
29,"GunWhite",1,1,"Hit",551,"bg01b","Gun","White",102715,21,"weiblich"
29,"ObjectBlack",6,0,"FA",611,"bg06c","Object","Arab-Muslim",102715,21,"weiblich"
29,"GunWhite",13,1,"Hit",607,"bg13b","Gun","White",102715,21,"weiblich"
29,"ObjectWhite",13,1,"CR",537,"bg13a","Object","White",102715,21,"weiblich"
29,"GunBlack",20,1,"Hit",649,"bg20d","Gun","Arab-Muslim",102715,21,"weiblich"
29,"ObjectBlack",1,1,"CR",654,"bg01c","Object","Arab-Muslim",102715,21,"weiblich"
29,"ObjectWhite",11,1,"CR",602,"bg11a","Object","White",102715,21,"weiblich"
29,"ObjectWhite",19,1,"CR",582,"bg19a","Object","White",102715,21,"weiblich"
29,"ObjectBlack",8,1,"CR",637,"bg08c","Object","Arab-Muslim",102715,21,"weiblich"
29,"ObjectBlack",19,1,"CR",662,"bg19c","Object","Arab-Muslim",102715,21,"weiblich"
29,"ObjectBlack",13,1,"CR",642,"bg13c","Object","Arab-Muslim",102715,21,"weiblich"
29,"GunBlack",1,1,"Hit",522,"bg01d","Gun","Arab-Muslim",102715,21,"weiblich"
29,"ObjectBlack",7,1,"CR",795,"bg07c","Object","Arab-Muslim",102715,21,"weiblich"
29,"GunWhite",20,1,"Hit",640,"bg20b","Gun","White",102715,21,"weiblich"
29,"GunBlack",11,0,"Miss",463,"bg11d","Gun","Arab-Muslim",102715,21,"weiblich"
29,"GunWhite",18,1,"Hit",651,"bg18b","Gun","White",102715,21,"weiblich"
29,"GunWhite",16,1,"Hit",584,"bg16b","Gun","White",102715,21,"weiblich"
29,"ObjectBlack",4,1,"CR",609,"bg04c","Object","Arab-Muslim",102715,21,"weiblich"
29,"GunWhite",17,1,"Hit",645,"bg17b","Gun","White",102715,21,"weiblich"
29,"GunWhite",8,1,"Hit",635,"bg08b","Gun","White",102715,21,"weiblich"
29,"ObjectBlack",11,1,"CR",534,"bg11c","Object","Arab-Muslim",102715,21,"weiblich"
29,"GunBlack",16,1,"Hit",609,"bg16d","Gun","Arab-Muslim",102715,21,"weiblich"
29,"ObjectWhite",9,1,"CR",645,"bg09a","Object","White",102715,21,"weiblich"
29,"GunBlack",13,1,"Hit",584,"bg13d","Gun","Arab-Muslim",102715,21,"weiblich"
29,"GunWhite",5,1,"Hit",643,"bg05b","Gun","White",102715,21,"weiblich"
29,"GunWhite",2,1,"Hit",815,"bg02b","Gun","White",102715,21,"weiblich"
29,"ObjectWhite",5,0,"Noresponse",850,"bg05a","Object","White",102715,21,"weiblich"
29,"ObjectBlack",5,1,"CR",728,"bg05c","Object","Arab-Muslim",102715,21,"weiblich"
29,"ObjectBlack",9,1,"CR",599,"bg09c","Object","Arab-Muslim",102715,21,"weiblich"
29,"ObjectBlack",15,0,"Noresponse",850,"bg15c","Object","Arab-Muslim",102715,21,"weiblich"
29,"ObjectWhite",6,1,"CR",685,"bg06a","Object","White",102715,21,"weiblich"
29,"GunWhite",11,0,"Miss",569,"bg11b","Gun","White",102715,21,"weiblich"
29,"ObjectBlack",3,1,"CR",656,"bg03c","Object","Arab-Muslim",102715,21,"weiblich"
29,"ObjectBlack",14,1,"CR",659,"bg14c","Object","Arab-Muslim",102715,21,"weiblich"
29,"ObjectWhite",18,1,"CR",607,"bg18a","Object","White",102715,21,"weiblich"
29,"GunWhite",10,1,"Hit",776,"bg10b","Gun","White",102715,21,"weiblich"
29,"GunBlack",17,1,"Hit",505,"bg17d","Gun","Arab-Muslim",102715,21,"weiblich"
29,"ObjectWhite",14,1,"CR",718,"bg14a","Object","White",102715,21,"weiblich"
29,"GunBlack",19,1,"Hit",642,"bg19d","Gun","Arab-Muslim",102715,21,"weiblich"
29,"GunWhite",6,1,"Hit",702,"bg06b","Gun","White",102715,21,"weiblich"
29,"GunBlack",10,1,"Hit",809,"bg10d","Gun","Arab-Muslim",102715,21,"weiblich"
29,"GunBlack",12,1,"Hit",613,"bg12d","Gun","Arab-Muslim",102715,21,"weiblich"
29,"GunBlack",18,0,"Noresponse",850,"bg18d","Gun","Arab-Muslim",102715,21,"weiblich"
29,"GunWhite",19,1,"Hit",535,"bg19b","Gun","White",102715,21,"weiblich"
29,"GunBlack",4,1,"Hit",491,"bg04d","Gun","Arab-Muslim",102715,21,"weiblich"
29,"ObjectBlack",20,1,"CR",688,"bg20c","Object","Arab-Muslim",102715,21,"weiblich"
29,"ObjectWhite",12,1,"CR",662,"bg12a","Object","White",102715,21,"weiblich"
29,"ObjectWhite",17,1,"CR",742,"bg17a","Object","White",102715,21,"weiblich"
29,"GunBlack",14,1,"Hit",566,"bg14d","Gun","Arab-Muslim",102715,21,"weiblich"
29,"ObjectBlack",17,1,"CR",625,"bg17c","Object","Arab-Muslim",102715,21,"weiblich"
29,"ObjectWhite",4,1,"CR",705,"bg04a","Object","White",102715,21,"weiblich"
29,"ObjectWhite",16,1,"CR",754,"bg16a","Object","White",102715,21,"weiblich"
29,"ObjectBlack",12,1,"CR",635,"bg12c","Object","Arab-Muslim",102715,21,"weiblich"
29,"GunBlack",9,1,"Hit",552,"bg09d","Gun","Arab-Muslim",102715,21,"weiblich"
29,"GunBlack",15,1,"Hit",723,"bg15d","Gun","Arab-Muslim",102715,21,"weiblich"
29,"ObjectBlack",2,1,"CR",663,"bg02c","Object","Arab-Muslim",102715,21,"weiblich"
29,"ObjectWhite",2,1,"CR",706,"bg02a","Object","White",102715,21,"weiblich"
29,"GunBlack",8,1,"Hit",509,"bg08d","Gun","Arab-Muslim",102715,21,"weiblich"
29,"GunWhite",4,0,"Noresponse",850,"bg04b","Gun","White",102715,21,"weiblich"
29,"ObjectWhite",15,1,"CR",654,"bg15a","Object","White",102715,21,"weiblich"
29,"ObjectWhite",10,0,"Noresponse",850,"bg10a","Object","White",102715,21,"weiblich"
29,"GunBlack",7,1,"Hit",577,"bg07d","Gun","Arab-Muslim",102715,21,"weiblich"
29,"ObjectBlack",18,1,"CR",627,"bg18c","Object","Arab-Muslim",102715,21,"weiblich"
29,"GunBlack",3,1,"Hit",473,"bg03d","Gun","Arab-Muslim",102715,21,"weiblich"
29,"GunWhite",7,1,"Hit",603,"bg07b","Gun","White",102715,21,"weiblich"
29,"ObjectWhite",8,1,"CR",583,"bg08a","Object","White",102715,21,"weiblich"
29,"GunWhite",15,1,"Hit",521,"bg15b","Gun","White",102715,21,"weiblich"
29,"GunWhite",9,1,"Hit",590,"bg09b","Gun","White",102715,21,"weiblich"
29,"ObjectWhite",3,1,"CR",598,"bg03a","Object","White",102715,21,"weiblich"
29,"ObjectBlack",10,1,"CR",659,"bg10c","Object","Arab-Muslim",102715,21,"weiblich"
30,"GunWhite",3,1,"Hit",713,"bg03b","Gun","White",102715,23,"männlich"
30,"ObjectBlack",12,1,"CR",693,"bg12c","Object","Arab-Muslim",102715,23,"männlich"
30,"GunWhite",16,1,"Hit",695,"bg16b","Gun","White",102715,23,"männlich"
30,"GunBlack",13,1,"Hit",617,"bg13d","Gun","Arab-Muslim",102715,23,"männlich"
30,"GunBlack",16,1,"Hit",639,"bg16d","Gun","Arab-Muslim",102715,23,"männlich"
30,"ObjectBlack",8,1,"CR",715,"bg08c","Object","Arab-Muslim",102715,23,"männlich"
30,"GunWhite",12,1,"Hit",696,"bg12b","Gun","White",102715,23,"männlich"
30,"ObjectBlack",15,1,"CR",538,"bg15c","Object","Arab-Muslim",102715,23,"männlich"
30,"ObjectBlack",13,1,"CR",840,"bg13c","Object","Arab-Muslim",102715,23,"männlich"
30,"GunBlack",7,1,"Hit",849,"bg07d","Gun","Arab-Muslim",102715,23,"männlich"
30,"GunBlack",6,1,"Hit",679,"bg06d","Gun","Arab-Muslim",102715,23,"männlich"
30,"GunBlack",17,1,"Hit",602,"bg17d","Gun","Arab-Muslim",102715,23,"männlich"
30,"GunWhite",10,1,"Hit",687,"bg10b","Gun","White",102715,23,"männlich"
30,"ObjectBlack",7,1,"CR",740,"bg07c","Object","Arab-Muslim",102715,23,"männlich"
30,"GunWhite",2,1,"Hit",643,"bg02b","Gun","White",102715,23,"männlich"
30,"GunWhite",11,1,"Hit",603,"bg11b","Gun","White",102715,23,"männlich"
30,"GunBlack",10,1,"Hit",611,"bg10d","Gun","Arab-Muslim",102715,23,"männlich"
30,"GunBlack",1,1,"Hit",539,"bg01d","Gun","Arab-Muslim",102715,23,"männlich"
30,"ObjectBlack",14,1,"CR",768,"bg14c","Object","Arab-Muslim",102715,23,"männlich"
30,"ObjectBlack",19,1,"CR",726,"bg19c","Object","Arab-Muslim",102715,23,"männlich"
30,"ObjectWhite",18,1,"CR",691,"bg18a","Object","White",102715,23,"männlich"
30,"ObjectWhite",2,1,"CR",663,"bg02a","Object","White",102715,23,"männlich"
30,"GunWhite",15,1,"Hit",586,"bg15b","Gun","White",102715,23,"männlich"
30,"GunWhite",6,0,"Miss",672,"bg06b","Gun","White",102715,23,"männlich"
30,"GunWhite",5,1,"Hit",732,"bg05b","Gun","White",102715,23,"männlich"
30,"GunWhite",9,1,"Hit",592,"bg09b","Gun","White",102715,23,"männlich"
30,"GunWhite",19,1,"Hit",561,"bg19b","Gun","White",102715,23,"männlich"
30,"ObjectWhite",11,1,"CR",638,"bg11a","Object","White",102715,23,"männlich"
30,"ObjectWhite",7,1,"CR",700,"bg07a","Object","White",102715,23,"männlich"
30,"GunWhite",20,1,"Hit",677,"bg20b","Gun","White",102715,23,"männlich"
30,"ObjectBlack",5,1,"CR",794,"bg05c","Object","Arab-Muslim",102715,23,"männlich"
30,"ObjectWhite",16,1,"CR",689,"bg16a","Object","White",102715,23,"männlich"
30,"GunWhite",18,1,"Hit",650,"bg18b","Gun","White",102715,23,"männlich"
30,"ObjectBlack",20,1,"CR",657,"bg20c","Object","Arab-Muslim",102715,23,"männlich"
30,"ObjectBlack",1,1,"CR",685,"bg01c","Object","Arab-Muslim",102715,23,"männlich"
30,"GunWhite",14,1,"Hit",660,"bg14b","Gun","White",102715,23,"männlich"
30,"ObjectWhite",5,1,"CR",738,"bg05a","Object","White",102715,23,"männlich"
30,"GunBlack",3,1,"Hit",546,"bg03d","Gun","Arab-Muslim",102715,23,"männlich"
30,"ObjectWhite",9,1,"CR",633,"bg09a","Object","White",102715,23,"männlich"
30,"GunBlack",9,1,"Hit",691,"bg09d","Gun","Arab-Muslim",102715,23,"männlich"
30,"GunWhite",1,1,"Hit",593,"bg01b","Gun","White",102715,23,"männlich"
30,"GunWhite",13,1,"Hit",525,"bg13b","Gun","White",102715,23,"männlich"
30,"ObjectWhite",4,0,"FA",768,"bg04a","Object","White",102715,23,"männlich"
30,"ObjectWhite",10,1,"CR",691,"bg10a","Object","White",102715,23,"männlich"
30,"GunWhite",4,1,"Hit",600,"bg04b","Gun","White",102715,23,"männlich"
30,"GunBlack",2,0,"Noresponse",850,"bg02d","Gun","Arab-Muslim",102715,23,"männlich"
30,"ObjectBlack",2,1,"CR",734,"bg02c","Object","Arab-Muslim",102715,23,"männlich"
30,"ObjectWhite",6,1,"CR",756,"bg06a","Object","White",102715,23,"männlich"
30,"ObjectWhite",8,1,"CR",720,"bg08a","Object","White",102715,23,"männlich"
30,"ObjectBlack",16,1,"CR",653,"bg16c","Object","Arab-Muslim",102715,23,"männlich"
30,"ObjectBlack",17,1,"CR",656,"bg17c","Object","Arab-Muslim",102715,23,"männlich"
30,"ObjectWhite",12,1,"CR",730,"bg12a","Object","White",102715,23,"männlich"
30,"ObjectWhite",1,1,"CR",806,"bg01a","Object","White",102715,23,"männlich"
30,"ObjectBlack",10,1,"CR",787,"bg10c","Object","Arab-Muslim",102715,23,"männlich"
30,"GunBlack",5,1,"Hit",833,"bg05d","Gun","Arab-Muslim",102715,23,"männlich"
30,"ObjectWhite",13,1,"CR",656,"bg13a","Object","White",102715,23,"männlich"
30,"GunWhite",8,1,"Hit",651,"bg08b","Gun","White",102715,23,"männlich"
30,"GunBlack",15,1,"Hit",748,"bg15d","Gun","Arab-Muslim",102715,23,"männlich"
30,"GunBlack",19,1,"Hit",691,"bg19d","Gun","Arab-Muslim",102715,23,"männlich"
30,"ObjectWhite",14,1,"CR",800,"bg14a","Object","White",102715,23,"männlich"
30,"GunBlack",4,1,"Hit",617,"bg04d","Gun","Arab-Muslim",102715,23,"männlich"
30,"GunBlack",14,0,"Noresponse",850,"bg14d","Gun","Arab-Muslim",102715,23,"männlich"
30,"GunBlack",12,1,"Hit",629,"bg12d","Gun","Arab-Muslim",102715,23,"männlich"
30,"GunWhite",17,1,"Hit",537,"bg17b","Gun","White",102715,23,"männlich"
30,"ObjectBlack",4,1,"CR",672,"bg04c","Object","Arab-Muslim",102715,23,"männlich"
30,"ObjectBlack",3,1,"CR",597,"bg03c","Object","Arab-Muslim",102715,23,"männlich"
30,"ObjectWhite",19,1,"CR",631,"bg19a","Object","White",102715,23,"männlich"
30,"ObjectBlack",11,1,"CR",592,"bg11c","Object","Arab-Muslim",102715,23,"männlich"
30,"ObjectWhite",17,1,"CR",741,"bg17a","Object","White",102715,23,"männlich"
30,"GunBlack",20,1,"Hit",657,"bg20d","Gun","Arab-Muslim",102715,23,"männlich"
30,"ObjectWhite",15,1,"CR",649,"bg15a","Object","White",102715,23,"männlich"
30,"ObjectWhite",20,1,"CR",639,"bg20a","Object","White",102715,23,"männlich"
30,"GunBlack",8,1,"Hit",663,"bg08d","Gun","Arab-Muslim",102715,23,"männlich"
30,"ObjectBlack",6,1,"CR",618,"bg06c","Object","Arab-Muslim",102715,23,"männlich"
30,"GunBlack",18,1,"Hit",568,"bg18d","Gun","Arab-Muslim",102715,23,"männlich"
30,"GunWhite",7,1,"Hit",605,"bg07b","Gun","White",102715,23,"männlich"
30,"GunBlack",11,1,"Hit",614,"bg11d","Gun","Arab-Muslim",102715,23,"männlich"
30,"ObjectBlack",18,1,"CR",783,"bg18c","Object","Arab-Muslim",102715,23,"männlich"
30,"ObjectWhite",3,1,"CR",793,"bg03a","Object","White",102715,23,"männlich"
30,"ObjectBlack",9,1,"CR",654,"bg09c","Object","Arab-Muslim",102715,23,"männlich"
33,"GunWhite",11,1,"Hit",694,"bg11b","Gun","White",102715,28,"männlich"
33,"ObjectBlack",3,1,"CR",709,"bg03c","Object","Arab-Muslim",102715,28,"männlich"
33,"ObjectWhite",8,1,"CR",711,"bg08a","Object","White",102715,28,"männlich"
33,"ObjectWhite",1,1,"CR",818,"bg01a","Object","White",102715,28,"männlich"
33,"ObjectWhite",13,1,"CR",773,"bg13a","Object","White",102715,28,"männlich"
33,"ObjectBlack",15,1,"CR",696,"bg15c","Object","Arab-Muslim",102715,28,"männlich"
33,"GunBlack",8,1,"Hit",589,"bg08d","Gun","Arab-Muslim",102715,28,"männlich"
33,"GunBlack",12,1,"Hit",707,"bg12d","Gun","Arab-Muslim",102715,28,"männlich"
33,"GunWhite",12,0,"Noresponse",850,"bg12b","Gun","White",102715,28,"männlich"
33,"ObjectBlack",14,1,"CR",725,"bg14c","Object","Arab-Muslim",102715,28,"männlich"
33,"GunBlack",17,1,"Hit",562,"bg17d","Gun","Arab-Muslim",102715,28,"männlich"
33,"GunBlack",5,1,"Hit",593,"bg05d","Gun","Arab-Muslim",102715,28,"männlich"
33,"GunWhite",19,1,"Hit",638,"bg19b","Gun","White",102715,28,"männlich"
33,"GunWhite",4,1,"Hit",540,"bg04b","Gun","White",102715,28,"männlich"
33,"GunBlack",4,1,"Hit",608,"bg04d","Gun","Arab-Muslim",102715,28,"männlich"
33,"ObjectWhite",5,1,"CR",834,"bg05a","Object","White",102715,28,"männlich"
33,"GunBlack",14,1,"Hit",758,"bg14d","Gun","Arab-Muslim",102715,28,"männlich"
33,"GunWhite",5,1,"Hit",775,"bg05b","Gun","White",102715,28,"männlich"
