"date","time","group","subject","blockcode","blocknum","trialcode","trialnum","response","correct","latency","stimulusnumber1","stimulusitem1","expressions.da","expressions.db","expressions.d","expressions.percentcorrect"
"121516","10:23:12","19","19","targetcompatiblepractice","1","targetAleft","2","18","1","3814","3","wf6_nc.jpg","","","0","0"
"121516","10:23:12","19","19","targetcompatiblepractice","1","targetBright","3","23","1","821","6","bm56_nc.jpg","","","0","0"
"121516","10:23:12","19","19","targetcompatiblepractice","1","targetBright","4","23","1","825","5","bm23_nc.jpg","","","0","0"
"121516","10:23:12","19","19","targetcompatiblepractice","1","targetAleft","5","18","1","872","5","wm4_nc.jpg","","","0","0"
"121516","10:23:12","19","19","targetcompatiblepractice","1","targetBright","6","23","1","819","2","bf23_nc.jpg","","","0","0"
"121516","10:23:12","19","19","targetcompatiblepractice","1","targetBright","7","23","1","1048","3","bf56_nc.jpg","","","0","0"
"121516","10:23:12","19","19","targetcompatiblepractice","1","targetAleft","8","18","1","715","2","wf3_nc.jpg","","","0","0"
"121516","10:23:12","19","19","targetcompatiblepractice","1","targetBright","9","23","1","806","4","bm14_nc.jpg","","","0","0"
"121516","10:23:12","19","19","targetcompatiblepractice","1","targetBright","10","23","1","620","1","bf14_nc.jpg","","","0","0"
"121516","10:23:12","19","19","targetcompatiblepractice","1","targetBright","11","23","1","632","1","bf14_nc.jpg","","","0","0"
"121516","10:23:12","19","19","targetcompatiblepractice","1","targetAleft","12","18","1","1479","1","wf2_nc.jpg","","","0","0"
"121516","10:23:12","19","19","targetcompatiblepractice","1","targetAleft","13","18","1","1120","4","wm1_nc.jpg","","","0","0"
"121516","10:23:12","19","19","targetcompatiblepractice","1","targetAleft","14","18","1","1024","6","wm6_nc.jpg","","","0","0"
"121516","10:23:12","19","19","targetcompatiblepractice","1","targetAleft","15","18","1","862","5","wm4_nc.jpg","","","0","0"
"121516","10:23:12","19","19","targetcompatiblepractice","1","targetBright","16","23","1","796","4","bm14_nc.jpg","","","0","0"
"121516","10:23:12","19","19","targetcompatiblepractice","1","targetAleft","17","18","1","780","4","wm1_nc.jpg","","","0","0"
"121516","10:23:12","19","19","targetcompatiblepractice","1","targetBright","18","23","1","970","3","bf56_nc.jpg","","","0","0"
"121516","10:23:12","19","19","targetcompatiblepractice","1","targetAleft","19","18","1","718","1","wf2_nc.jpg","","","0","0"
"121516","10:23:12","19","19","targetcompatiblepractice","1","targetBright","20","23","1","841","6","bm56_nc.jpg","","","0","0"
"121516","10:23:12","19","19","targetcompatiblepractice","1","targetAleft","21","18","1","704","2","wf3_nc.jpg","","","0","0"
"121516","10:23:12","19","19","attributepractice","2","attributeA","2","18","1","3584","5","Glorious","","","0","0"
"121516","10:23:12","19","19","attributepractice","2","attributeB","3","23","1","1142","5","Terrible","","","0","0"
"121516","10:23:12","19","19","attributepractice","2","attributeB","4","23","1","1067","8","Hurt","","","0","0"
"121516","10:23:12","19","19","attributepractice","2","attributeB","5","23","1","1068","1","Evil","","","0","0"
"121516","10:23:12","19","19","attributepractice","2","attributeA","6","18","1","883","7","Peace","","","0","0"
"121516","10:23:12","19","19","attributepractice","2","attributeB","7","23","1","1685","2","Agony","","","0","0"
"121516","10:23:12","19","19","attributepractice","2","attributeB","8","23","1","898","3","Awful","","","0","0"
"121516","10:23:12","19","19","attributepractice","2","attributeB","9","23","1","807","6","Horrible","","","0","0"
"121516","10:23:12","19","19","attributepractice","2","attributeB","10","23","1","1043","7","Failure","","","0","0"
"121516","10:23:12","19","19","attributepractice","2","attributeA","11","18","1","619","2","Happy","","","0","0"
"121516","10:23:12","19","19","attributepractice","2","attributeA","12","18","1","840","3","Laughter","","","0","0"
"121516","10:23:12","19","19","attributepractice","2","attributeB","13","23","1","2745","4","Nasty","","","0","0"
"121516","10:23:12","19","19","attributepractice","2","attributeA","14","18","1","741","1","Joy","","","0","0"
"121516","10:23:12","19","19","attributepractice","2","attributeB","15","23","1","803","1","Evil","","","0","0"
"121516","10:23:12","19","19","attributepractice","2","attributeA","16","18","1","699","4","Love","","","0","0"
"121516","10:23:12","19","19","attributepractice","2","attributeA","17","18","1","800","8","Wonderful","","","0","0"
"121516","10:23:12","19","19","attributepractice","2","attributeB","18","23","1","1290","8","Hurt","","","0","0"
"121516","10:23:12","19","19","attributepractice","2","attributeA","19","18","1","869","6","Pleasure","","","0","0"
"121516","10:23:12","19","19","attributepractice","2","attributeA","20","18","1","662","3","Laughter","","","0","0"
"121516","10:23:12","19","19","attributepractice","2","attributeA","21","18","1","555","7","Peace","","","0","0"
"121516","10:23:12","19","19","compatibletest1","3","attributeA","2","18","1","1297","4","Love","","","0","100"
"121516","10:23:12","19","19","compatibletest1","3","targetAleft","3","18","1","1214","3","wf6_nc.jpg","-1.4111333046096683486","","-0.7055666523048341743","100"
"121516","10:23:12","19","19","compatibletest1","3","attributeB","4","23","1","901","3","Awful","-1.564189165740989873","","-0.7820945828704949365","100"
"121516","10:23:12","19","19","compatibletest1","3","targetAleft","5","18","1","784","6","wm6_nc.jpg","-1.6051574951918361478","","-0.8025787475959180739","100"
"121516","10:23:12","19","19","compatibletest1","3","attributeA","6","18","1","649","2","Happy","-1.5916506219864652305","","-0.7958253109932326153","100"
"121516","10:23:12","19","19","compatibletest1","3","targetBright","7","23","1","792","5","bm23_nc.jpg","-1.6310390885188275067","","-0.8155195442594137534","100"
"121516","10:23:12","19","19","compatibletest1","3","attributeB","8","23","1","929","5","Terrible","-1.6780407257360989703","","-0.8390203628680494852","100"
"121516","10:23:12","19","19","compatibletest1","3","targetBright","9","23","1","926","2","bf23_nc.jpg","-1.7142002114245766808","","-0.8571001057122883404","100"
"121516","10:23:12","19","19","compatibletest1","3","attributeA","10","18","1","738","5","Glorious","-1.7236497322978943103","","-0.8618248661489471552","100"
"121516","10:23:12","19","19","compatibletest1","3","targetAleft","11","18","1","798","4","wm1_nc.jpg","-1.741013517702126645","","-0.8705067588510633225","100"
"121516","10:23:12","19","19","compatibletest1","3","attributeA","12","18","1","743","6","Pleasure","-1.75032714548948376","","-0.87516357274474188","100"
"121516","10:23:12","19","19","compatibletest1","3","targetBright","13","23","1","837","5","bm23_nc.jpg","-1.767227087497806215","","-0.8836135437489031075","100"
"121516","10:23:12","19","19","compatibletest1","3","attributeB","14","23","1","1070","2","Agony","-1.7781642452368955354","","-0.8890821226184477677","100"
"121516","10:23:12","19","19","compatibletest1","3","targetBright","15","23","1","824","1","bf14_nc.jpg","-1.7898118148643229475","","-0.8949059074321614737","100"
"121516","10:23:12","19","19","compatibletest1","3","attributeB","16","23","1","821","4","Nasty","-1.8001355441319584205","","-0.9000677720659792103","100"
"121516","10:23:12","19","19","compatibletest1","3","targetAleft","17","18","1","680","3","wf6_nc.jpg","-1.7978947026850051749","","-0.8989473513425025875","100"
"121516","10:23:12","19","19","compatibletest1","3","attributeB","18","23","1","762","6","Horrible","-1.8040140233027104344","","-0.9020070116513552172","100"
"121516","10:23:12","19","19","compatibletest1","3","targetBright","19","23","1","1116","2","bf23_nc.jpg","-1.8046308701261026819","","-0.9023154350630513409","100"
"121516","10:23:12","19","19","compatibletest1","3","attributeA","20","18","1","571","1","Joy","-1.7896574605514592449","","-0.8948287302757296224","100"
"121516","10:23:12","19","19","compatibletest1","3","targetAleft","21","18","1","601","6","wm6_nc.jpg","-1.7811641687683543722","","-0.8905820843841771861","100"
"121516","10:23:12","19","19","compatibletest2","5","attributeA","1","18","1","1134","8","Wonderful","-1.7811641687683543722","","-0.8905820843841771861","100"
"121516","10:23:12","19","19","compatibletest2","5","targetBright","2","23","1","1652","4","bm14_nc.jpg","-1.7811641687683543722","-1.325533084186551136","-1.5533486264774527541","100"
"121516","10:23:12","19","19","compatibletest2","5","attributeA","3","18","1","791","4","Love","-1.7811641687683543722","-1.4041992457832852548","-1.5926817072758199245","100"
"121516","10:23:12","19","19","compatibletest2","5","targetAleft","4","18","1","759","1","wf2_nc.jpg","-1.7811641687683543722","-1.4435576732457711113","-1.6123609210070628528","100"
"121516","10:23:12","19","19","compatibletest2","5","attributeB","5","23","1","1010","7","Failure","-1.7811641687683543722","-1.5313539466909864561","-1.6562590577296703032","100"
"121516","10:23:12","19","19","compatibletest2","5","targetAleft","6","18","1","750","5","wm4_nc.jpg","-1.7811641687683543722","-1.5478491867467478738","-1.664506677757551234","100"
"121516","10:23:12","19","19","compatibletest2","5","attributeB","7","23","1","617","5","Terrible","-1.7811641687683543722","-1.5317763329873246292","-1.6564702508778395007","100"
"121516","10:23:12","19","19","compatibletest2","5","targetBright","8","23","1","726","6","bm56_nc.jpg","-1.7811641687683543722","-1.550043290409201191","-1.6656037295887777816","100"
"121516","10:23:12","19","19","compatibletest2","5","attributeB","9","23","1","871","4","Nasty","-1.7811641687683543722","-1.5860851329390581732","-1.6836246508537062727","100"
"121516","10:23:12","19","19","compatibletest2","5","targetAleft","10","18","1","583","2","wf3_nc.jpg","-1.7811641687683543722","-1.5736308848008819794","-1.6773975267846181758","100"
"121516","10:23:12","19","19","compatibletest2","5","attributeA","11","18","1","676","3","Laughter","-1.7811641687683543722","-1.5830736041763233679","-1.6821188864723388701","100"
"121516","10:23:12","19","19","compatibletest2","5","targetBright","12","23","1","648","3","bf56_nc.jpg","-1.7811641687683543722","-1.5889295932876690287","-1.6850468810280117005","100"
"121516","10:23:12","19","19","compatibletest2","5","attributeB","13","23","1","659","1","Evil","-1.7811641687683543722","-1.5971531660260411822","-1.6891586673971978882","100"
"121516","10:23:12","19","19","compatibletest2","5","targetAleft","14","18","1","575","3","wf6_nc.jpg","-1.7811641687683543722","-1.5939994842309823664","-1.6875818264996684803","100"
"121516","10:23:12","19","19","compatibletest2","5","attributeA","15","18","1","572","1","Joy","-1.7811641687683543722","-1.5923968316833176928","-1.6867805002258360325","100"
"121516","10:23:12","19","19","compatibletest2","5","targetBright","16","23","1","675","5","bm23_nc.jpg","-1.7811641687683543722","-1.6039704714786278128","-1.6925673201234912035","100"
"121516","10:23:12","19","19","compatibletest2","5","attributeA","17","18","1","619","7","Peace","-1.7811641687683543722","-1.6096232676438204656","-1.6953937182060874189","100"
"121516","10:23:12","19","19","compatibletest2","5","targetAleft","18","18","1","703","1","wf2_nc.jpg","-1.7811641687683543722","-1.6225059660575682496","-1.701835067412961422","100"
"121516","10:23:12","19","19","compatibletest2","5","attributeB","19","23","1","950","2","Agony","-1.7811641687683543722","-1.6381142860487332147","-1.7096392274085436824","100"
"121516","10:23:12","19","19","compatibletest2","5","targetBright","20","23","0","1205","6","bm56_nc.jpg","-1.7811641687683543722","-1.6346139097628413772","-1.7078890392655978747","97.5"
"121516","10:23:12","19","19","compatibletest2","5","attributeB","21","23","1","1281","8","Hurt","-1.7811641687683543722","-1.6269727324486904507","-1.7040684506085224115","97.5609756097560989474"
"121516","10:23:12","19","19","compatibletest2","5","targetBright","22","23","1","1098","2","bf23_nc.jpg","-1.7811641687683543722","-1.6371260833782061983","-1.7091451260732801742","97.619047619047620401"
"121516","10:23:12","19","19","compatibletest2","5","attributeA","23","18","1","654","2","Happy","-1.7811641687683543722","-1.6398911813002685633","-1.7105276750343114678","97.6744186046511515542"
"121516","10:23:12","19","19","compatibletest2","5","targetAleft","24","18","1","811","6","wm6_nc.jpg","-1.7811641687683543722","-1.6510470271309611867","-1.7161055979496577795","97.7272727272727337322"
"121516","10:23:12","19","19","compatibletest2","5","attributeB","25","23","1","729","3","Awful","-1.7811641687683543722","-1.6582840324294243484","-1.7197241005988894713","97.7777777777777714618"
"121516","10:23:12","19","19","compatibletest2","5","targetAleft","26","18","1","669","5","wm4_nc.jpg","-1.7811641687683543722","-1.6619058323348459005","-1.7215350005516001364","97.8260869565217348054"
"121516","10:23:12","19","19","compatibletest2","5","attributeA","27","18","1","782","8","Wonderful","-1.7811641687683543722","-1.6708022617019333556","-1.7259832152351437529","97.8723404255319167078"
"121516","10:23:12","19","19","compatibletest2","5","targetAleft","28","18","1","795","2","wf3_nc.jpg","-1.7811641687683543722","-1.6796035009520742243","-1.7303838348602142982","97.9166666666666571928"
"121516","10:23:12","19","19","compatibletest2","5","attributeB","29","23","1","646","6","Horrible","-1.7811641687683543722","-1.6814357015225929182","-1.7312999351454736452","97.9591836734693828248"
"121516","10:23:12","19","19","compatibletest2","5","targetAleft","30","18","1","653","4","wm1_nc.jpg","-1.7811641687683543722","-1.6838492153156314757","-1.7325066920419929239","98"
"121516","10:23:12","19","19","compatibletest2","5","attributeA","31","18","1","659","6","Pleasure","-1.7811641687683543722","-1.6866947757455685863","-1.7339294722569613683","98.0392156862745025592"
"121516","10:23:12","19","19","compatibletest2","5","targetAleft","32","18","1","560","1","wf2_nc.jpg","-1.7811641687683543722","-1.683312548769319017","-1.7322383587688365836","98.0769230769230659917"
"121516","10:23:12","19","19","compatibletest2","5","attributeB","33","23","1","690","7","Failure","-1.7811641687683543722","-1.6878848997061297599","-1.734524534237241955","98.1132075471698072988"
"121516","10:23:12","19","19","compatibletest2","5","targetBright","34","23","1","879","4","bm14_nc.jpg","-1.7811641687683543722","-1.6958567026899731278","-1.738510435729163639","98.1481481481481523588"
"121516","10:23:12","19","19","compatibletest2","5","attributeB","35","23","1","680","1","Evil","-1.7811641687683543722","-1.6995797798120053645","-1.7403719742901797574","98.1818181818181869858"
"121516","10:23:12","19","19","compatibletest2","5","targetBright","36","23","1","562","1","bf14_nc.jpg","-1.7811641687683543722","-1.6969729933710770986","-1.7390685810697157354","98.2142857142857081953"
"121516","10:23:12","19","19","compatibletest2","5","attributeA","37","18","1","1665","5","Glorious","-1.7811641687683543722","-1.6412561752454120079","-1.7112101720068833011","98.2456140350877120682"
"121516","10:23:12","19","19","compatibletest2","5","targetBright","38","23","1","867","3","bf56_nc.jpg","-1.7811641687683543722","-1.649173968134498125","-1.7151690684514262486","98.2758620689655089109"
"121516","10:23:12","19","19","compatibletest2","5","attributeA","39","18","1","515","6","Pleasure","-1.7811641687683543722","-1.6437001062675844487","-1.7124321375179694105","98.3050847457627128279"
"121516","10:23:12","19","19","compatibletest2","5","targetBright","40","23","1","661","1","bf14_nc.jpg","-1.7811641687683543722","-1.6465640135167154412","-1.7138640911425349067","98.3333333333333285964"
"121516","10:23:12","19","19","targetincompatiblepractice","6","targetAright","2","23","1","1012","2","wf3_nc.jpg","-1.7811641687683543722","-1.6465640135167154412","-1.7138640911425349067","98.3333333333333285964"
"121516","10:23:12","19","19","targetincompatiblepractice","6","targetBleft","3","18","1","871","4","bm14_nc.jpg","-1.7811641687683543722","-1.6465640135167154412","-1.7138640911425349067","98.3333333333333285964"
"121516","10:23:12","19","19","targetincompatiblepractice","6","targetAright","4","23","1","1313","3","wf6_nc.jpg","-1.7811641687683543722","-1.6465640135167154412","-1.7138640911425349067","98.3333333333333285964"
"121516","10:23:12","19","19","targetincompatiblepractice","6","targetBleft","5","18","1","968","3","bf56_nc.jpg","-1.7811641687683543722","-1.6465640135167154412","-1.7138640911425349067","98.3333333333333285964"
"121516","10:23:12","19","19","targetincompatiblepractice","6","targetBleft","6","18","1","646","6","bm56_nc.jpg","-1.7811641687683543722","-1.6465640135167154412","-1.7138640911425349067","98.3333333333333285964"
"121516","10:23:12","19","19","targetincompatiblepractice","6","targetAright","7","23","1","720","4","wm1_nc.jpg","-1.7811641687683543722","-1.6465640135167154412","-1.7138640911425349067","98.3333333333333285964"
"121516","10:23:12","19","19","targetincompatiblepractice","6","targetAright","8","23","1","665","6","wm6_nc.jpg","-1.7811641687683543722","-1.6465640135167154412","-1.7138640911425349067","98.3333333333333285964"
"121516","10:23:12","19","19","targetincompatiblepractice","6","targetBleft","9","18","1","517","5","bm23_nc.jpg","-1.7811641687683543722","-1.6465640135167154412","-1.7138640911425349067","98.3333333333333285964"
"121516","10:23:12","19","19","targetincompatiblepractice","6","targetAright","10","23","1","640","5","wm4_nc.jpg","-1.7811641687683543722","-1.6465640135167154412","-1.7138640911425349067","98.3333333333333285964"
"121516","10:23:12","19","19","targetincompatiblepractice","6","targetBleft","11","18","1","735","2","bf23_nc.jpg","-1.7811641687683543722","-1.6465640135167154412","-1.7138640911425349067","98.3333333333333285964"
"121516","10:23:12","19","19","targetincompatiblepractice","6","targetAright","12","23","1","574","6","wm6_nc.jpg","-1.7811641687683543722","-1.6465640135167154412","-1.7138640911425349067","98.3333333333333285964"
"121516","10:23:12","19","19","targetincompatiblepractice","6","targetBleft","13","18","1","794","5","bm23_nc.jpg","-1.7811641687683543722","-1.6465640135167154412","-1.7138640911425349067","98.3333333333333285964"
"121516","10:23:12","19","19","targetincompatiblepractice","6","targetBleft","14","18","1","611","3","bf56_nc.jpg","-1.7811641687683543722","-1.6465640135167154412","-1.7138640911425349067","98.3333333333333285964"
"121516","10:23:12","19","19","targetincompatiblepractice","6","targetBleft","15","18","1","520","2","bf23_nc.jpg","-1.7811641687683543722","-1.6465640135167154412","-1.7138640911425349067","98.3333333333333285964"
"121516","10:23:12","19","19","targetincompatiblepractice","6","targetAright","16","23","1","571","2","wf3_nc.jpg","-1.7811641687683543722","-1.6465640135167154412","-1.7138640911425349067","98.3333333333333285964"
"121516","10:23:12","19","19","targetincompatiblepractice","6","targetAright","17","23","1","784","4","wm1_nc.jpg","-1.7811641687683543722","-1.6465640135167154412","-1.7138640911425349067","98.3333333333333285964"
"121516","10:23:12","19","19","targetincompatiblepractice","6","targetBleft","18","18","1","852","1","bf14_nc.jpg","-1.7811641687683543722","-1.6465640135167154412","-1.7138640911425349067","98.3333333333333285964"
"121516","10:23:12","19","19","targetincompatiblepractice","6","targetAright","19","23","1","994","5","wm4_nc.jpg","-1.7811641687683543722","-1.6465640135167154412","-1.7138640911425349067","98.3333333333333285964"
"121516","10:23:12","19","19","targetincompatiblepractice","6","targetBleft","20","18","1","809","6","bm56_nc.jpg","-1.7811641687683543722","-1.6465640135167154412","-1.7138640911425349067","98.3333333333333285964"
"121516","10:23:12","19","19","targetincompatiblepractice","6","targetAright","21","23","1","696","3","wf6_nc.jpg","-1.7811641687683543722","-1.6465640135167154412","-1.7138640911425349067","98.3333333333333285964"
"121516","10:23:12","19","19","incompatibletest1","7","attributeA","2","18","1","1058","7","Peace","0.9470508450141508217","-1.6465640135167154412","-0.3497565842512823098","98.3606557377049171009"
"121516","10:23:12","19","19","incompatibletest1","7","targetAright","3","23","1","641","1","wf2_nc.jpg","-0.016079486680247633","-1.6465640135167154412","-0.8313217500984815267","98.387096774193551596"
"121516","10:23:12","19","19","incompatibletest1","7","attributeA","4","18","1","712","2","Happy","-0.2518411087882421739","-1.6465640135167154412","-0.9492025611524788076","98.4126984126984041268"
"121516","10:23:12","19","19","incompatibletest1","7","targetAright","5","23","1","699","6","wm6_nc.jpg","-0.3885058926573018989","-1.6465640135167154412","-1.0175349530870085868","98.4375"
"121516","10:23:12","19","19","incompatibletest1","7","attributeA","6","18","0","1596","8","Wonderful","0.3651152878741737995","-1.6465640135167154412","-0.6407243628212708764","96.9230769230769197975"
"121516","10:23:12","19","19","incompatibletest1","7","targetBleft","7","18","1","1277","4","bm14_nc.jpg","0.5726195561592208882","-1.6465640135167154412","-0.5369722286787472765","96.9696969696969688357"
"121516","10:23:12","19","19","incompatibletest1","7","attributeB","8","23","1","1023","6","Horrible","0.5964265036522394814","-1.6465640135167154412","-0.5250687549322379244","97.0149253731343321761"
"121516","10:23:12","19","19","incompatibletest1","7","targetBleft","9","18","1","906","5","bm23_nc.jpg","0.5609568815116682261","-1.6465640135167154412","-0.5428035660025236631","97.0588235294117680496"
"121516","10:23:12","19","19","incompatibletest1","7","attributeB","10","23","1","1944","4","Nasty","0.7805159963853594007","-1.6465640135167154412","-0.4330240085656780202","97.1014492753623130739"
"121516","10:23:12","19","19","incompatibletest1","7","targetBleft","11","18","1","651","3","bf56_nc.jpg","0.6434425887131272059","-1.6465640135167154412","-0.5015607124017941176","97.1428571428571387969"
"121516","10:23:12","19","19","incompatibletest1","7","attributeA","12","18","1","992","5","Glorious","0.6371825335007518243","-1.6465640135167154412","-0.504690740007981864","97.1830985915492959748"
"121516","10:23:12","19","19","incompatibletest1","7","targetAright","13","23","1","722","1","wf2_nc.jpg","0.554339448106975996","-1.6465640135167154412","-0.5461122827048696671","97.2222222222222143273"
"121516","10:23:12","19","19","incompatibletest1","7","attributeB","14","23","1","820","5","Terrible","0.5110403948545130248","-1.6465640135167154412","-0.5677618093311012082","97.2602739726027465395"
"121516","10:23:12","19","19","incompatibletest1","7","targetBleft","15","18","1","736","2","bf23_nc.jpg","0.451039911242753444","-1.6465640135167154412","-0.5977620511369809986","97.2972972972973053629"
"121516","10:23:12","19","19","incompatibletest1","7","attributeB","16","23","1","982","8","Hurt","0.4570152818765625402","-1.6465640135167154412","-0.5947743658200764783","97.3333333333333428072"
"121516","10:23:12","19","19","incompatibletest1","7","targetAright","17","23","1","963","3","wf6_nc.jpg","0.4589320282404583673","-1.6465640135167154412","-0.5938159926381285647","97.3684210526315752077"
"121516","10:23:12","19","19","incompatibletest1","7","attributeA","18","18","0","1408","3","Laughter","0.5326989168913701667","-1.6465640135167154412","-0.5569325483126725818","96.1038961038961048189"
"121516","10:23:12","19","19","incompatibletest1","7","targetBleft","19","18","1","1108","6","bm56_nc.jpg","0.5565370292204170344","-1.6465640135167154412","-0.5450134921481492034","96.153846153846160405"
"121516","10:23:12","19","19","incompatibletest1","7","attributeB","20","23","0","1364","2","Agony","0.6108594793801292999","-1.6465640135167154412","-0.5178522670682930151","94.93670886075949511"
"121516","10:23:12","19","19","incompatibletest1","7","targetAright","21","23","1","1313","4","wm1_nc.jpg","0.6540238945097381906","-1.6465640135167154412","-0.4962700595034886253","95"
"121516","10:23:12","19","19","incompatibletest2","9","attributeB","1","23","1","1906","7","Failure","0.6540238945097381906","1.7851542944594558371","1.2195890944845970694","95.0617283950617348864"
"121516","10:23:12","19","19","incompatibletest2","9","targetAright","2","23","1","855","5","wm4_nc.jpg","0.6540238945097381906","1.4138773827623298818","1.0339506386360339807","95.1219512195121978948"
"121516","10:23:12","19","19","incompatibletest2","9","attributeB","3","23","1","715","3","Awful","0.6540238945097381906","1.0335260564752295487","0.8437749754924839252","95.1807228915662619784"
"121516","10:23:12","19","19","incompatibletest2","9","targetBleft","4","18","1","771","4","bm14_nc.jpg","0.6540238945097381906","0.8048295480735311314","0.729426721291634661","95.2380952380952265912"
"121516","10:23:12","19","19","incompatibletest2","9","attributeA","5","18","1","640","4","Love","0.6540238945097381906","0.5672868616963565591","0.6106553781030473749","95.2941176470588118264"
"121516","10:23:12","19","19","incompatibletest2","9","targetBleft","6","18","1","873","1","bf14_nc.jpg","0.6540238945097381906","0.5202580802555504258","0.5871409873826443082","95.3488372093023315301"
"121516","10:23:12","19","19","incompatibletest2","9","attributeA","7","18","1","603","1","Joy","0.6540238945097381906","0.3594366951431033352","0.5067302948264207352","95.4022988505747093768"
"121516","10:23:12","19","19","incompatibletest2","9","targetBleft","8","18","1","756","6","bm56_nc.jpg","0.6540238945097381906","0.2999055915641301029","0.4769647430369341468","95.4545454545454532536"
"121516","10:23:12","19","19","incompatibletest2","9","attributeB","9","23","1","735","6","Horrible","0.6540238945097381906","0.2448580108503817243","0.4494409526800599575","95.5056179775280895683"
"121516","10:23:12","19","19","incompatibletest2","9","targetAright","10","23","1","715","2","wf3_nc.jpg","0.6540238945097381906","0.1931753388574278252","0.4235996166835830357","95.5555555555555571345"
"121516","10:23:12","19","19","incompatibletest2","9","attributeB","11","23","1","621","3","Awful","0.6540238945097381906","0.1201894558073934027","0.3871066751585657828","95.6043956043956058011"
"121516","10:23:12","19","19","incompatibletest2","9","targetBleft","12","18","1","728","2","bf23_nc.jpg","0.6540238945097381906","0.0900010406731289875","0.3720124675914335821","95.6521739130434838216"
"121516","10:23:12","19","19","incompatibletest2","9","attributeB","13","23","1","639","5","Terrible","0.6540238945097381906","0.0398046710354030206","0.3469142827725705813","95.698924731182799519"
"121516","10:23:12","19","19","incompatibletest2","9","targetAright","14","23","1","823","3","wf6_nc.jpg","0.6540238945097381906","0.0429577742506494706","0.348490834380193848","95.7446808510638334155"
"121516","10:23:12","19","19","incompatibletest2","9","attributeA","15","18","1","564","7","Peace","0.6540238945097381906","-0.0160725919715815034","0.3189756512690783419","95.7894736842105203323"
"121516","10:23:12","19","19","incompatibletest2","9","targetAright","16","23","1","750","4","wm1_nc.jpg","0.6540238945097381906","-0.02661697253322233","0.3137034609882579095","95.8333333333333428072"
"121516","10:23:12","19","19","incompatibletest2","9","attributeA","17","18","1","814","8","Wonderful","0.6540238945097381906","-0.0224540173308218627","0.315784938589458164","95.8762886597938148725"
"121516","10:23:12","19","19","incompatibletest2","9","targetBleft","18","18","1","643","5","bm23_nc.jpg","0.6540238945097381906","-0.0533383245297293501","0.3003427849900044411","95.9183673469387656496"
"121516","10:23:12","19","19","incompatibletest2","9","attributeB","19","23","0","1267","1","Evil","0.6540238945097381906","0.0384383767770415108","0.3462311356433898646","94.9494949494949480595"
"121516","10:23:12","19","19","incompatibletest2","9","targetAright","20","23","1","845","1","wf2_nc.jpg","0.6540238945097381906","0.0448343497917380387","0.3494291221507381251","95"
"121516","10:23:12","19","19","incompatibletest2","9","attributeA","21","18","1","1107","5","Glorious","0.6540238945097381906","0.0953804925174666501","0.3747021935136023996","95.0495049504950486607"
"121516","10:23:12","19","19","incompatibletest2","9","targetAright","22","23","1","797","5","wm4_nc.jpg","0.6540238945097381906","0.0911752362084235352","0.3725995653590808421","95.0980392156862706088"
"121516","10:23:12","19","19","incompatibletest2","9","attributeA","23","18","1","878","4","Love","0.6540238945097381906","0.1002187163556648997","0.377121305432701559","95.1456310679611618752"
"121516","10:23:12","19","19","incompatibletest2","9","targetAright","24","23","1","883","6","wm6_nc.jpg","0.6540238945097381906","0.1094455792200505206","0.3817347368648943418","95.1923076923076934008"
"121516","10:23:12","19","19","incompatibletest2","9","attributeA","25","18","0","1292","1","Joy","0.6540238945097381906","0.1749383208202980322","0.4144811076650181114","94.2857142857142775938"
"121516","10:23:12","19","19","incompatibletest2","9","targetAright","26","23","1","659","2","wf3_nc.jpg","0.6540238945097381906","0.1491227929008545339","0.4015733437052963484","94.3396226415094361073"
"121516","10:23:12","19","19","incompatibletest2","9","attributeB","27","23","1","1248","8","Hurt","0.6540238945097381906","0.2020213306880468407","0.4280226125988925157","94.392523364485981574"
"121516","10:23:12","19","19","incompatibletest2","9","targetBleft","28","18","1","1019","3","bf56_nc.jpg","0.6540238945097381906","0.2238770024318438023","0.4389504484707910104","94.4444444444444428655"
"121516","10:23:12","19","19","incompatibletest2","9","attributeB","29","23","1","886","7","Failure","0.6540238945097381906","0.228454629094463485","0.4412392618021008239","94.4954128440366929453"
"121516","10:23:12","19","19","incompatibletest2","9","targetBleft","30","18","1","693","1","bf14_nc.jpg","0.6540238945097381906","0.2088552613069653008","0.4314395779083517457","94.5454545454545467464"
"121516","10:23:12","19","19","incompatibletest2","9","attributeA","31","18","1","938","3","Laughter","0.6540238945097381906","0.2197253191804285632","0.4368746068450833908","94.594594594594596515"
"121516","10:23:12","19","19","incompatibletest2","9","targetBleft","32","18","1","811","4","bm14_nc.jpg","0.6540238945097381906","0.2155662929557885799","0.4347950937327633714","94.6428571428571387969"
"121516","10:23:12","19","19","incompatibletest2","9","attributeB","33","23","0","1199","2","Agony","0.6540238945097381906","0.2524671337081216271","0.4532455141089298811","93.8053097345132727014"
"121516","10:23:12","19","19","incompatibletest2","9","targetAright","34","23","1","852","4","wm1_nc.jpg","0.6540238945097381906","0.2523566972026363153","0.453190295856187253","93.8596491228070135548"
"121516","10:23:12","19","19","incompatibletest2","9","attributeA","35","18","1","1072","6","Pleasure","0.6540238945097381906","0.2744591945300441371","0.4642415445198911916","93.9130434782608745081"
"121516","10:23:12","19","19","incompatibletest2","9","targetAright","36","23","1","578","3","wf6_nc.jpg","0.6540238945097381906","0.2438540099768543301","0.4489389522432962742","93.9655172413793167152"
"121516","10:23:12","19","19","incompatibletest2","9","attributeA","37","18","1","1168","2","Happy","0.6540238945097381906","0.2733780676206717941","0.4637009810652049646","94.0170940170940099279"
"121516","10:23:12","19","19","incompatibletest2","9","targetBleft","38","18","1","746","5","bm23_nc.jpg","0.6540238945097381906","0.2623331639598627252","0.4581785292348004579","94.0677966101694948975"
"121516","10:23:12","19","19","incompatibletest2","9","attributeB","39","23","1","1109","4","Nasty","0.6540238945097381906","0.2851535256193883372","0.4695887100645632639","94.1176470588235218884"
"121516","10:23:12","19","19","incompatibletest2","9","targetBleft","40","18","1","708","3","bf56_nc.jpg","0.6540238945097381906","0.2706464648474513068","0.462335179678594721","94.1666666666666714036"
"121416","22:23:06","22","22","targetincompatiblepractice","1","targetAright","2","23","1","689","5","flower5.jpg","","","0","0"
"121416","22:23:06","22","22","targetincompatiblepractice","1","targetAright","3","23","1","511","4","flower4.jpg","","","0","0"
"121416","22:23:06","22","22","targetincompatiblepractice","1","targetAright","4","23","1","514","3","flower3.jpg","","","0","0"
"121416","22:23:06","22","22","targetincompatiblepractice","1","targetBleft","5","18","1","475","1","insect1.jpg","","","0","0"
"121416","22:23:06","22","22","targetincompatiblepractice","1","targetAright","6","23","1","532","1","flower1.jpg","","","0","0"
"121416","22:23:06","22","22","targetincompatiblepractice","1","targetAright","7","23","1","550","2","flower2.jpg","","","0","0"
"121416","22:23:06","22","22","targetincompatiblepractice","1","targetAright","8","23","1","488","6","flower6.jpg","","","0","0"
"121416","22:23:06","22","22","targetincompatiblepractice","1","targetBleft","9","18","1","503","2","insect2.jpg","","","0","0"
"121416","22:23:06","22","22","targetincompatiblepractice","1","targetBleft","10","18","1","455","4","insect4.jpg","","","0","0"
"121416","22:23:06","22","22","targetincompatiblepractice","1","targetAright","11","23","1","436","3","flower3.jpg","","","0","0"
"121416","22:23:06","22","22","targetincompatiblepractice","1","targetBleft","12","18","1","604","6","insect6.jpg","","","0","0"
"121416","22:23:06","22","22","targetincompatiblepractice","1","targetAright","13","23","1","468","5","flower5.jpg","","","0","0"
"121416","22:23:06","22","22","targetincompatiblepractice","1","targetBleft","14","18","1","494","5","insect5.jpg","","","0","0"
"121416","22:23:06","22","22","targetincompatiblepractice","1","targetBleft","15","18","1","609","3","insect3.jpg","","","0","0"
"121416","22:23:06","22","22","targetincompatiblepractice","1","targetBleft","16","18","1","420","4","insect4.jpg","","","0","0"
"121416","22:23:06","22","22","targetincompatiblepractice","1","targetAright","17","23","1","442","1","flower1.jpg","","","0","0"
"121416","22:23:06","22","22","targetincompatiblepractice","1","targetBleft","18","18","1","481","3","insect3.jpg","","","0","0"
"121416","22:23:06","22","22","targetincompatiblepractice","1","targetAright","19","23","1","435","2","flower2.jpg","","","0","0"
"121416","22:23:06","22","22","targetincompatiblepractice","1","targetBleft","20","18","1","474","6","insect6.jpg","","","0","0"
"121416","22:23:06","22","22","targetincompatiblepractice","1","targetBleft","21","18","1","615","5","insect5.jpg","","","0","0"
"121416","22:23:06","22","22","attributepractice","2","attributeA","2","18","1","773","4","Love","","","0","0"
"121416","22:23:06","22","22","attributepractice","2","attributeA","3","18","1","435","3","Laughter","","","0","0"
"121416","22:23:06","22","22","attributepractice","2","attributeA","4","18","1","458","1","Joy","","","0","0"
"121416","22:23:06","22","22","attributepractice","2","attributeB","5","23","1","432","4","Nasty","","","0","0"
"121416","22:23:06","22","22","attributepractice","2","attributeB","6","23","1","585","5","Terrible","","","0","0"
"121416","22:23:06","22","22","attributepractice","2","attributeB","7","23","1","533","3","Awful","","","0","0"
"121416","22:23:06","22","22","attributepractice","2","attributeB","8","23","1","515","1","Evil","","","0","0"
"121416","22:23:06","22","22","attributepractice","2","attributeA","9","18","1","489","2","Happy","","","0","0"
"121416","22:23:06","22","22","attributepractice","2","attributeB","10","23","1","601","2","Agony","","","0","0"
"121416","22:23:06","22","22","attributepractice","2","attributeB","11","23","1","504","7","Failure","","","0","0"
"121416","22:23:06","22","22","attributepractice","2","attributeA","12","18","1","561","8","Wonderful","","","0","0"
"121416","22:23:06","22","22","attributepractice","2","attributeB","13","23","1","976","8","Hurt","","","0","0"
"121416","22:23:06","22","22","attributepractice","2","attributeA","14","18","1","517","6","Pleasure","","","0","0"
"121416","22:23:06","22","22","attributepractice","2","attributeA","15","18","1","645","7","Peace","","","0","0"
"121416","22:23:06","22","22","attributepractice","2","attributeA","16","18","1","455","5","Glorious","","","0","0"
"121416","22:23:06","22","22","attributepractice","2","attributeB","17","23","1","457","6","Horrible","","","0","0"
"121416","22:23:06","22","22","attributepractice","2","attributeB","18","23","1","792","2","Agony","","","0","0"
"121416","22:23:06","22","22","attributepractice","2","attributeA","19","18","1","625","5","Glorious","","","0","0"
"121416","22:23:06","22","22","attributepractice","2","attributeB","20","23","1","470","8","Hurt","","","0","0"
"121416","22:23:06","22","22","attributepractice","2","attributeA","21","18","1","586","6","Pleasure","","","0","0"
"121416","22:23:06","22","22","incompatibletest1","3","attributeA","2","18","1","802","1","Joy","","","0","100"
"121416","22:23:06","22","22","incompatibletest1","3","targetAright","3","23","1","607","6","flower6.jpg","1.3629659889400482786","","0.6814829944700241393","100"
"121416","22:23:06","22","22","incompatibletest1","3","attributeB","4","23","1","813","4","Nasty","1.5821642493813110608","","0.7910821246906555304","100"
"121416","22:23:06","22","22","incompatibletest1","3","targetAright","5","23","1","858","4","flower4.jpg","1.6801630809328942373","","0.8400815404664471187","100"
"121416","22:23:06","22","22","incompatibletest1","3","attributeA","6","18","1","701","7","Peace","1.7396636103960685382","","0.8698318051980342691","100"
"121416","22:23:06","22","22","incompatibletest1","3","targetAright","7","23","1","1241","1","flower1.jpg","1.6493083115744735512","","0.8246541557872367756","100"
"121416","22:23:06","22","22","incompatibletest1","3","attributeA","8","18","1","891","8","Wonderful","1.6961972834198044691","","0.8480986417099022345","100"
"121416","22:23:06","22","22","incompatibletest1","3","targetBleft","9","18","1","824","1","insect1.jpg","1.730306798530327983","","0.8651533992651639915","100"
"121416","22:23:06","22","22","incompatibletest1","3","attributeA","10","18","1","592","4","Love","1.7228047305768099395","","0.8614023652884049698","100"
"121416","22:23:06","22","22","incompatibletest1","3","targetBleft","11","18","1","740","2","insect2.jpg","1.7433470844541532063","","0.8716735422270766032","100"
"121416","22:23:06","22","22","incompatibletest1","3","attributeB","12","23","1","502","7","Failure","1.7190735547581135201","","0.85953677737905676","100"
"121416","22:23:06","22","22","incompatibletest1","3","targetBleft","13","18","1","580","5","insect5.jpg","1.7186014951893602287","","0.8593007475946801144","100"
"121416","22:23:06","22","22","incompatibletest1","3","attributeB","14","23","1","577","5","Terrible","1.7194265269587263312","","0.8597132634793631656","100"
"121416","22:23:06","22","22","incompatibletest1","3","targetBleft","15","18","1","619","1","insect1.jpg","1.7271970248374810541","","0.8635985124187405271","100"
"121416","22:23:06","22","22","incompatibletest1","3","attributeB","16","23","1","641","1","Evil","1.7370525053836300966","","0.8685262526918150483","100"
"121416","22:23:06","22","22","incompatibletest1","3","targetBleft","17","18","1","519","2","insect2.jpg","1.7310458077459913717","","0.8655229038729956859","100"
"121416","22:23:06","22","22","incompatibletest1","3","attributeA","18","18","1","708","3","Laughter","1.7444346497520890615","","0.8722173248760445308","100"
"121416","22:23:06","22","22","incompatibletest1","3","targetAright","19","23","1","764","3","flower3.jpg","1.7573657990385505023","","0.8786828995192752512","100"
"121416","22:23:06","22","22","incompatibletest1","3","attributeB","20","23","1","674","6","Horrible","1.7669106874821991493","","0.8834553437410995747","100"
"121416","22:23:06","22","22","incompatibletest1","3","targetAright","21","23","1","673","6","flower6.jpg","1.7756841928958917443","","0.8878420964479458721","100"
"121416","22:23:06","22","22","incompatibletest2","5","attributeA","1","18","1","956","2","Happy","1.7756841928958917443","","0.8878420964479458721","100"
"121416","22:23:06","22","22","incompatibletest2","5","targetBleft","2","18","1","578","3","insect3.jpg","1.7756841928958917443","1.2685286749831958808","1.5221064339395438125","100"
"121416","22:23:06","22","22","incompatibletest2","5","attributeA","3","18","1","527","2","Happy","1.7756841928958917443","1.4265847735418273334","1.6011344832188596499","100"
"121416","22:23:06","22","22","incompatibletest2","5","targetAright","4","23","1","549","4","flower4.jpg","1.7756841928958917443","1.5240762230339681693","1.6498802079649299568","100"
"121416","22:23:06","22","22","incompatibletest2","5","attributeB","5","23","1","662","3","Awful","1.7756841928958917443","1.6116364149832362873","1.6936603039395641268","100"
"121416","22:23:06","22","22","incompatibletest2","5","targetBleft","6","18","0","1082","4","insect4.jpg","1.7756841928958917443","1.5712714322647847176","1.6734778125803382309","96.153846153846160405"
"121416","22:23:06","22","22","incompatibletest2","5","attributeB","7","23","1","792","6","Horrible","1.7756841928958917443","1.6262404145588198467","1.7009623037273557955","96.2962962962962905067"
"121416","22:23:06","22","22","incompatibletest2","5","targetBleft","8","18","1","920","6","insect6.jpg","1.7756841928958917443","1.6602237604192862097","1.717953976657589088","96.4285714285714306016"
"121416","22:23:06","22","22","incompatibletest2","5","attributeB","9","23","1","897","2","Agony","1.7756841928958917443","1.6912462689449709874","1.7334652309204314768","96.5517241379310320326"
"121416","22:23:06","22","22","incompatibletest2","5","targetAright","10","23","1","609","5","flower5.jpg","1.7756841928958917443","1.700186433600462621","1.7379353132481771826","96.6666666666666714036"
"121416","22:23:06","22","22","incompatibletest2","5","attributeA","11","18","1","587","8","Wonderful","1.7756841928958917443","1.7056717382573329811","1.7406779655766122517","96.774193548387103192"
"121416","22:23:06","22","22","incompatibletest2","5","targetAright","12","23","1","639","2","flower2.jpg","1.7756841928958917443","1.7192727642549341383","1.7474784785754129413","96.875"
"121416","22:23:06","22","22","incompatibletest2","5","attributeB","13","23","1","799","3","Awful","1.7756841928958917443","1.7388345963549982631","1.7572593946254451147","96.9696969696969688357"
"121416","22:23:06","22","22","incompatibletest2","5","targetBleft","14","18","1","536","3","insect3.jpg","1.7756841928958917443","1.734657115516954784","1.7551706542064233751","97.0588235294117680496"
"121416","22:23:06","22","22","incompatibletest2","5","attributeA","15","18","1","508","6","Pleasure","1.7756841928958917443","1.7276840963802215789","1.7516841446380566616","97.1428571428571387969"
"121416","22:23:06","22","22","incompatibletest2","5","targetAright","16","23","1","591","5","flower5.jpg","1.7756841928958917443","1.7343271797078787522","1.7550056863018852482","97.2222222222222143273"
"121416","22:23:06","22","22","incompatibletest2","5","attributeB","17","23","1","624","5","Terrible","1.7756841928958917443","1.7438037458539423774","1.7597439693749170608","97.2972972972973053629"
"121416","22:23:06","22","22","incompatibletest2","5","targetAright","18","23","1","705","1","flower1.jpg","1.7756841928958917443","1.7564105986392253289","1.7660473957675586476","97.3684210526315752077"
"121416","22:23:06","22","22","incompatibletest2","5","attributeB","19","23","1","824","4","Nasty","1.7756841928958917443","1.7659286061764010167","1.7708063995361462695","97.4358974358974307961"
"121416","22:23:06","22","22","incompatibletest2","5","targetAright","20","23","1","690","4","flower4.jpg","1.7756841928958917443","1.7758904471465442043","1.7757873200212179743","97.5"
"121416","22:23:06","22","22","incompatibletest2","5","attributeB","21","23","1","749","1","Evil","1.7756841928958917443","1.7856898195296770915","1.7806870062127844179","97.5609756097560989474"
"121416","22:23:06","22","22","incompatibletest2","5","targetAright","22","23","1","690","3","flower3.jpg","1.7756841928958917443","1.794021174694849563","1.7848526837953706536","97.619047619047620401"
"121416","22:23:06","22","22","incompatibletest2","5","attributeA","23","18","1","636","5","Glorious","1.7756841928958917443","1.7996403340198532383","1.7876622634578724913","97.6744186046511515542"
"121416","22:23:06","22","22","incompatibletest2","5","targetBleft","24","18","1","713","5","insect5.jpg","1.7756841928958917443","1.8072753874379490213","1.7914797901669203828","97.7272727272727337322"
"121416","22:23:06","22","22","incompatibletest2","5","attributeA","25","18","1","819","3","Laughter","1.7756841928958917443","1.8126909396338777292","1.7941875662648847367","97.7777777777777714618"
"121416","22:23:06","22","22","incompatibletest2","5","targetBleft","26","18","1","513","6","insect6.jpg","1.7756841928958917443","1.8076607886560638327","1.7916724907759777885","97.8260869565217348054"
"121416","22:23:06","22","22","incompatibletest2","5","attributeA","27","18","1","583","1","Joy","1.7756841928958917443","1.8093109122524089205","1.7924975525741504434","97.8723404255319167078"
"121416","22:23:06","22","22","incompatibletest2","5","targetAright","28","23","1","636","6","flower6.jpg","1.7756841928958917443","1.813831399318191373","1.7947577961070415586","97.9166666666666571928"
"121416","22:23:06","22","22","incompatibletest2","5","attributeB","29","23","1","565","7","Failure","1.7756841928958917443","1.814351839111272513","1.7950180160035822396","97.9591836734693828248"
"121416","22:23:06","22","22","incompatibletest2","5","targetAright","30","23","1","844","2","flower2.jpg","1.7756841928958917443","1.8168453183033117515","1.7962647555996018589","98"
"121416","22:23:06","22","22","incompatibletest2","5","attributeA","31","18","1","835","4","Love","1.7756841928958917443","1.8198769708711095561","1.7977805818835006502","98.0392156862745025592"
"121416","22:23:06","22","22","incompatibletest2","5","targetBleft","32","18","1","550","4","insect4.jpg","1.7756841928958917443","1.8188983143189496605","1.7972912536074208134","98.0769230769230659917"
"121416","22:23:06","22","22","incompatibletest2","5","attributeA","33","18","1","601","7","Peace","1.7756841928958917443","1.8211129324493371406","1.7983985626726144424","98.1132075471698072988"
"121416","22:23:06","22","22","incompatibletest2","5","targetBleft","34","18","1","552","2","insect2.jpg","1.7756841928958917443","1.8206539196562627758","1.79816905627607726","98.1481481481481523588"
"121416","22:23:06","22","22","incompatibletest2","5","attributeA","35","18","1","990","7","Peace","1.7756841928958917443","1.8121514897858945758","1.7939178413408931601","98.1818181818181869858"
"121416","22:23:06","22","22","incompatibletest2","5","targetBleft","36","18","1","520","1","insect1.jpg","1.7756841928958917443","1.8095101022570543314","1.7925971475764730378","98.2142857142857081953"
"121416","22:23:06","22","22","incompatibletest2","5","attributeB","37","23","1","678","8","Hurt","1.7756841928958917443","1.813917814630493508","1.7948010037631925151","98.2456140350877120682"
"121416","22:23:06","22","22","incompatibletest2","5","targetAright","38","23","1","649","5","flower5.jpg","1.7756841928958917443","1.8175605042542957168","1.7966223485750938416","98.2758620689655089109"
"121416","22:23:06","22","22","incompatibletest2","5","attributeB","39","23","1","548","4","Nasty","1.7756841928958917443","1.8170271271308926497","1.796355660013392086","98.3050847457627128279"
"121416","22:23:06","22","22","incompatibletest2","5","targetBleft","40","18","1","608","5","insect5.jpg","1.7756841928958917443","1.8193576922934533435","1.7975209425946725439","98.3333333333333285964"
"121416","22:23:06","22","22","targetcompatiblepractice","6","targetAleft","2","18","1","568","3","flower3.jpg","1.7756841928958917443","1.8193576922934533435","1.7975209425946725439","98.3333333333333285964"
"121416","22:23:06","22","22","targetcompatiblepractice","6","targetAleft","3","18","1","486","2","flower2.jpg","1.7756841928958917443","1.8193576922934533435","1.7975209425946725439","98.3333333333333285964"
"121416","22:23:06","22","22","targetcompatiblepractice","6","targetAleft","4","18","1","529","1","flower1.jpg","1.7756841928958917443","1.8193576922934533435","1.7975209425946725439","98.3333333333333285964"
"121416","22:23:06","22","22","targetcompatiblepractice","6","targetBright","5","23","1","479","2","insect2.jpg","1.7756841928958917443","1.8193576922934533435","1.7975209425946725439","98.3333333333333285964"
"121416","22:23:06","22","22","targetcompatiblepractice","6","targetAleft","6","18","1","544","4","flower4.jpg","1.7756841928958917443","1.8193576922934533435","1.7975209425946725439","98.3333333333333285964"
"121416","22:23:06","22","22","targetcompatiblepractice","6","targetAleft","7","18","1","521","6","flower6.jpg","1.7756841928958917443","1.8193576922934533435","1.7975209425946725439","98.3333333333333285964"
"121416","22:23:06","22","22","targetcompatiblepractice","6","targetBright","8","23","1","459","6","insect6.jpg","1.7756841928958917443","1.8193576922934533435","1.7975209425946725439","98.3333333333333285964"
"121416","22:23:06","22","22","targetcompatiblepractice","6","targetBright","9","23","1","589","1","insect1.jpg","1.7756841928958917443","1.8193576922934533435","1.7975209425946725439","98.3333333333333285964"
"121416","22:23:06","22","22","targetcompatiblepractice","6","targetBright","10","23","1","455","3","insect3.jpg","1.7756841928958917443","1.8193576922934533435","1.7975209425946725439","98.3333333333333285964"
"121416","22:23:06","22","22","targetcompatiblepractice","6","targetBright","11","23","1","498","4","insect4.jpg","1.7756841928958917443","1.8193576922934533435","1.7975209425946725439","98.3333333333333285964"
"121416","22:23:06","22","22","targetcompatiblepractice","6","targetBright","12","23","1","518","6","insect6.jpg","1.7756841928958917443","1.8193576922934533435","1.7975209425946725439","98.3333333333333285964"
"121416","22:23:06","22","22","targetcompatiblepractice","6","targetAleft","13","18","1","443","5","flower5.jpg","1.7756841928958917443","1.8193576922934533435","1.7975209425946725439","98.3333333333333285964"
"121416","22:23:06","22","22","targetcompatiblepractice","6","targetBright","14","23","1","523","3","insect3.jpg","1.7756841928958917443","1.8193576922934533435","1.7975209425946725439","98.3333333333333285964"
"121416","22:23:06","22","22","targetcompatiblepractice","6","targetBright","15","23","1","653","1","insect1.jpg","1.7756841928958917443","1.8193576922934533435","1.7975209425946725439","98.3333333333333285964"
"121416","22:23:06","22","22","targetcompatiblepractice","6","targetAleft","16","18","1","414","2","flower2.jpg","1.7756841928958917443","1.8193576922934533435","1.7975209425946725439","98.3333333333333285964"
"121416","22:23:06","22","22","targetcompatiblepractice","6","targetBright","17","23","1","699","4","insect4.jpg","1.7756841928958917443","1.8193576922934533435","1.7975209425946725439","98.3333333333333285964"
"121416","22:23:06","22","22","targetcompatiblepractice","6","targetAleft","18","18","1","451","6","flower6.jpg","1.7756841928958917443","1.8193576922934533435","1.7975209425946725439","98.3333333333333285964"
"121416","22:23:06","22","22","targetcompatiblepractice","6","targetAleft","19","18","1","489","4","flower4.jpg","1.7756841928958917443","1.8193576922934533435","1.7975209425946725439","98.3333333333333285964"
"121416","22:23:06","22","22","targetcompatiblepractice","6","targetBright","20","23","1","547","5","insect5.jpg","1.7756841928958917443","1.8193576922934533435","1.7975209425946725439","98.3333333333333285964"
"121416","22:23:06","22","22","targetcompatiblepractice","6","targetAleft","21","18","1","463","3","flower3.jpg","1.7756841928958917443","1.8193576922934533435","1.7975209425946725439","98.3333333333333285964"
"121416","22:23:06","22","22","compatibletest1","7","attributeA","2","18","1","658","4","Love","0.3534240953054275658","1.8193576922934533435","1.0863908937994404269","98.3606557377049171009"
"121416","22:23:06","22","22","compatibletest1","7","targetBright","3","23","1","603","2","insect2.jpg","0.5215289396476022743","1.8193576922934533435","1.1704433159705278644","98.387096774193551596"
"121416","22:23:06","22","22","compatibletest1","7","attributeA","4","18","1","650","8","Wonderful","0.4951412526571118411","1.8193576922934533435","1.1572494724752826478","98.4126984126984041268"
"121416","22:23:06","22","22","compatibletest1","7","targetAleft","5","18","1","470","1","flower1.jpg","0.7273888568272347532","1.8193576922934533435","1.2733732745603441039","98.4375"
"121416","22:23:06","22","22","compatibletest1","7","attributeB","6","23","1","514","1","Evil","0.8204263109200259363","1.8193576922934533435","1.3198920016067396954","98.4615384615384670042"
"121416","22:23:06","22","22","compatibletest1","7","targetAleft","7","18","1","522","5","flower5.jpg","0.8791054281473299481","1.8193576922934533435","1.3492315602203917013","98.4848484848484844179"
"121416","22:23:06","22","22","compatibletest1","7","attributeA","8","18","1","516","6","Pleasure","0.9277600681253412862","1.8193576922934533435","1.3735588802093974259","98.507462686567166088"
"121416","22:23:06","22","22","compatibletest1","7","targetBright","9","23","1","562","2","insect2.jpg","0.9414611760718374356","1.8193576922934533435","1.3804094341826453896","98.5294117647058840248"
"121416","22:23:06","22","22","compatibletest1","7","attributeB","10","23","1","650","7","Failure","0.9031614206478193463","1.8193576922934533435","1.3612595564706362339","98.5507246376811707478"
"121416","22:23:06","22","22","compatibletest1","7","targetAleft","11","18","1","578","4","flower4.jpg","0.9126512073781454237","1.8193576922934533435","1.3660044498357994947","98.5714285714285836093"
"121416","22:23:06","22","22","compatibletest1","7","attributeA","12","18","1","632","1","Joy","0.8954169507638910508","1.8193576922934533435","1.3573873215286722527","98.5915492957746550928"
"121416","22:23:06","22","22","compatibletest1","7","targetBright","13","23","1","643","4","insect4.jpg","0.8763926502024047549","1.8193576922934533435","1.3478751712479291047","98.6111111111111142691"
"121416","22:23:06","22","22","compatibletest1","7","attributeA","14","18","1","649","5","Glorious","0.8580354880945880724","1.8193576922934533435","1.3386965901940206525","98.6301369863013661643"
"121416","22:23:06","22","22","compatibletest1","7","targetAleft","15","18","1","566","3","flower3.jpg","0.8772113612733084542","1.8193576922934533435","1.3482845267833809544","98.648648648648645576"
"121416","22:23:06","22","22","compatibletest1","7","attributeB","16","23","1","504","2","Agony","0.9135663762618738692","1.8193576922934533435","1.3664620342776636619","98.6666666666666714036"
"121416","22:23:06","22","22","compatibletest1","7","targetBright","17","23","1","762","3","insect3.jpg","0.8443620023204689851","1.8193576922934533435","1.3318598473069611643","98.6842105263157804984"
"121416","22:23:06","22","22","compatibletest1","7","attributeB","18","23","1","702","8","Hurt","0.8113784745206213955","1.8193576922934533435","1.3153680834070373695","98.7012987012986968693"
"121416","22:23:06","22","22","compatibletest1","7","targetAleft","19","18","1","529","2","flower2.jpg","0.840421077661060778","1.8193576922934533435","1.3298893849772570608","98.7179487179487296089"
"121416","22:23:06","22","22","compatibletest1","7","attributeB","20","23","1","466","6","Horrible","0.8791053651982522199","1.8193576922934533435","1.3492315287458527262","98.7341772151898737775"
"121416","22:23:06","22","22","compatibletest1","7","targetBright","21","23","0","1059","1","insect1.jpg","0.6640885415702614258","1.8193576922934533435","1.2417231169318574402","97.5"
"121416","22:23:06","22","22","compatibletest2","9","attributeB","1","23","1","750","5","Terrible","0.6640885415702614258","-0.4464081888338850002","0.1088401763681882128","97.5308641975308603378"
"121416","22:23:06","22","22","compatibletest2","9","targetAleft","2","18","1","465","1","flower1.jpg","0.6640885415702614258","0.5055068149495997032","0.5847976782599305645","97.5609756097560989474"
"121416","22:23:06","22","22","compatibletest2","9","attributeB","3","23","1","489","3","Awful","0.6640885415702614258","0.7405973805812987587","0.7023429610757800923","97.5903614457831309892"
"121416","22:23:06","22","22","compatibletest2","9","targetAleft","4","18","1","463","6","flower6.jpg","0.6640885415702614258","0.8829139731698888438","0.7735012573700751348","97.619047619047620401"
"121416","22:23:06","22","22","compatibletest2","9","attributeB","5","23","1","518","5","Terrible","0.6640885415702614258","0.9144203699542527985","0.7892544557622571677","97.6470588235294059132"
"121416","22:23:06","22","22","compatibletest2","9","targetBright","6","23","1","620","6","insect6.jpg","0.6640885415702614258","0.8502433566886878902","0.757165949129474658","97.6744186046511515542"
"121416","22:23:06","22","22","compatibletest2","9","attributeA","7","18","1","468","2","Happy","0.6640885415702614258","0.915983613651104478","0.7900360776106829519","97.7011494252873546884"
"121416","22:23:06","22","22","compatibletest2","9","targetBright","8","23","1","567","5","insect5.jpg","0.6640885415702614258","0.9059151301552150759","0.7850018358627381954","97.7272727272727337322"
"121416","22:23:06","22","22","compatibletest2","9","attributeA","9","18","1","568","3","Laughter","0.6640885415702614258","0.8987784681624729766","0.7814335048663672012","97.7528089887640447841"
"121416","22:23:06","22","22","compatibletest2","9","targetBright","10","23","1","563","2","insect2.jpg","0.6640885415702614258","0.8969044087742112925","0.7804964751722363037","97.7777777777777714618"
"121416","22:23:06","22","22","compatibletest2","9","attributeB","11","23","1","596","1","Evil","0.6640885415702614258","0.8798081294146343767","0.7719483354924479013","97.8021978021977957951"
"121416","22:23:06","22","22","compatibletest2","9","targetBright","12","23","1","559","3","insect3.jpg","0.6640885415702614258","0.8834943318718807559","0.7737914367210710909","97.8260869565217348054"
"121416","22:23:06","22","22","compatibletest2","9","attributeB","13","23","1","623","2","Agony","0.6640885415702614258","0.8588675718799465564","0.7614780567251040466","97.8494623655913926541"
"121416","22:23:06","22","22","compatibletest2","9","targetBright","14","23","1","560","4","insect4.jpg","0.6640885415702614258","0.8646057212861386621","0.7643471314281999884","97.8723404255319167078"
"121416","22:23:06","22","22","compatibletest2","9","attributeA","15","18","1","542","3","Laughter","0.6640885415702614258","0.8769527246465882442","0.7705206331084248905","97.894736842105274377"
"121416","22:23:06","22","22","compatibletest2","9","targetAleft","16","18","1","522","3","flower3.jpg","0.6640885415702614258","0.8950510138693282824","0.7795697777197948541","97.9166666666666571928"
"121416","22:23:06","22","22","compatibletest2","9","attributeB","17","23","1","503","3","Awful","0.6640885415702614258","0.9171786994288408934","0.7906336204995512151","97.9381443298969003308"
"121416","22:23:06","22","22","compatibletest2","9","targetAleft","18","18","1","498","4","flower4.jpg","0.6640885415702614258","0.9386588682172331","0.8013737048937472629","97.9591836734693828248"
"121416","22:23:06","22","22","compatibletest2","9","attributeB","19","23","1","546","6","Horrible","0.6640885415702614258","0.9457561087434934732","0.8049223251568774495","97.9797979797979792238"
"121416","22:23:06","22","22","compatibletest2","9","targetBright","20","23","1","593","1","insect1.jpg","0.6640885415702614258","0.9391659334404791615","0.8016272375053703492","98"
"121416","22:23:06","22","22","compatibletest2","9","attributeA","21","18","1","662","5","Glorious","0.6640885415702614258","0.9112611320101449142","0.7876748367902031145","98.0198019801980251486"
"121416","22:23:06","22","22","compatibletest2","9","targetAleft","22","18","1","505","6","flower6.jpg","0.6640885415702614258","0.92925842807738257","0.7966734848238219424","98.0392156862745025592"
"121416","22:23:06","22","22","compatibletest2","9","attributeA","23","18","1","652","2","Happy","0.6640885415702614258","0.9075005919201521998","0.7857945667452068683","98.0582524271844704344"
"121416","22:23:06","22","22","compatibletest2","9","targetAleft","24","18","1","584","1","flower1.jpg","0.6640885415702614258","0.9067972693535580886","0.7854429054619097572","98.0769230769230659917"
"121416","22:23:06","22","22","compatibletest2","9","attributeA","25","18","1","527","8","Wonderful","0.6640885415702614258","0.9194560713211813452","0.7917723064457213855","98.0952380952380877943"
"121416","22:23:06","22","22","compatibletest2","9","targetAleft","26","18","1","516","2","flower2.jpg","0.6640885415702614258","0.9336165549380386341","0.7988525482541499745","98.1132075471698072988"
"121416","22:23:06","22","22","compatibletest2","9","attributeA","27","18","1","518","6","Pleasure","0.6640885415702614258","0.9466844057619311359","0.8053864736660962809","98.1308411214953224544"
"121416","22:23:06","22","22","compatibletest2","9","targetBright","28","23","1","602","5","insect5.jpg","0.6640885415702614258","0.9417532651672981814","0.8029209033687798591","98.1481481481481523588"
"121416","22:23:06","22","22","compatibletest2","9","attributeB","29","23","1","542","7","Failure","0.6640885415702614258","0.9499573071954937609","0.8070229243828775934","98.1651376146788976484"
"121416","22:23:06","22","22","compatibletest2","9","targetAleft","30","18","1","532","5","flower5.jpg","0.6640885415702614258","0.9596807496556167827","0.8118846456129391598","98.1818181818181869858"
"121416","22:23:06","22","22","compatibletest2","9","attributeA","31","18","1","533","1","Joy","0.6640885415702614258","0.9688915452721685861","0.816490043421215006","98.1981981981981988383"
"121416","22:23:06","22","22","compatibletest2","9","targetBright","32","23","1","528","6","insect6.jpg","0.6640885415702614258","0.9785948051769187694","0.8213416733735900976","98.2142857142857081953"
"121416","22:23:06","22","22","compatibletest2","9","attributeA","33","18","1","612","4","Love","0.6640885415702614258","0.9723805819652290294","0.8182345617677452276","98.2300884955752167116"
"121416","22:23:06","22","22","compatibletest2","9","targetAleft","34","18","1","464","5","flower5.jpg","0.6640885415702614258","0.9897354582732054151","0.826911999921733365","98.2456140350877120682"
"121416","22:23:06","22","22","compatibletest2","9","attributeB","35","23","1","519","8","Hurt","0.6640885415702614258","0.9998449671586511212","0.831966754364456218","98.2608695652173906865"
"121416","22:23:06","22","22","compatibletest2","9","targetBright","36","23","1","593","3","insect3.jpg","0.6640885415702614258","0.9977266125674927322","0.830907577068877079","98.2758620689655089109"
"121416","22:23:06","22","22","compatibletest2","9","attributeB","37","23","1","539","4","Nasty","0.6640885415702614258","1.004752276237411035","0.8344204089038362859","98.2905982905982824605"
"121416","22:23:06","22","22","compatibletest2","9","targetAleft","38","18","1","442","3","flower3.jpg","0.6640885415702614258","1.0215048561624466839","0.8427966988663539993","98.3050847457627128279"
"121416","22:23:06","22","22","compatibletest2","9","attributeA","39","18","1","445","7","Peace","0.6640885415702614258","1.0371989416852427368","0.8506437416277521368","98.3193277310924287349"
"121416","22:23:06","22","22","compatibletest2","9","targetBright","40","23","1","510","6","insect6.jpg","0.6640885415702614258","1.046596028857460059","0.8553422852138607979","98.3333333333333285964"
"121416","21:22:14","21","21","targetcompatiblepractice","1","targetAleft","2","18","1","1141","2","flower2.jpg","","","0","0"
"121416","21:22:14","21","21","targetcompatiblepractice","1","targetBright","3","23","1","537","6","insect6.jpg","","","0","0"
"121416","21:22:14","21","21","targetcompatiblepractice","1","targetAleft","4","18","1","638","4","flower4.jpg","","","0","0"
"121416","21:22:14","21","21","targetcompatiblepractice","1","targetBright","5","23","1","456","2","insect2.jpg","","","0","0"
"121416","21:22:14","21","21","targetcompatiblepractice","1","targetAleft","6","18","1","463","6","flower6.jpg","","","0","0"
"121416","21:22:14","21","21","targetcompatiblepractice","1","targetAleft","7","18","1","456","3","flower3.jpg","","","0","0"
"121416","21:22:14","21","21","targetcompatiblepractice","1","targetBright","8","23","1","874","5","insect5.jpg","","","0","0"
"121416","21:22:14","21","21","targetcompatiblepractice","1","targetAleft","9","18","1","635","1","flower1.jpg","","","0","0"
"121416","21:22:14","21","21","targetcompatiblepractice","1","targetBright","10","23","1","613","1","insect1.jpg","","","0","0"
"121416","21:22:14","21","21","targetcompatiblepractice","1","targetBright","11","23","1","587","3","insect3.jpg","","","0","0"
"121416","21:22:14","21","21","targetcompatiblepractice","1","targetBright","12","23","1","388","4","insect4.jpg","","","0","0"
"121416","21:22:14","21","21","targetcompatiblepractice","1","targetBright","13","23","1","423","5","insect5.jpg","","","0","0"
"121416","21:22:14","21","21","targetcompatiblepractice","1","targetBright","14","23","1","435","6","insect6.jpg","","","0","0"
"121416","21:22:14","21","21","targetcompatiblepractice","1","targetAleft","15","18","1","351","5","flower5.jpg","","","0","0"
"121416","21:22:14","21","21","targetcompatiblepractice","1","targetAleft","16","18","1","388","1","flower1.jpg","","","0","0"
"121416","21:22:14","21","21","targetcompatiblepractice","1","targetAleft","17","18","1","364","5","flower5.jpg","","","0","0"
"121416","21:22:14","21","21","targetcompatiblepractice","1","targetAleft","18","18","1","384","4","flower4.jpg","","","0","0"
"121416","21:22:14","21","21","targetcompatiblepractice","1","targetBright","19","23","0","463","2","insect2.jpg","","","0","0"
"121416","21:22:14","21","21","targetcompatiblepractice","1","targetBright","20","23","0","1077","3","insect3.jpg","","","0","0"
"121416","21:22:14","21","21","targetcompatiblepractice","1","targetAleft","21","18","1","419","3","flower3.jpg","","","0","0"
"121416","21:22:14","21","21","attributepractice","2","attributeB","2","23","1","616","1","Evil","","","0","0"
"121416","21:22:14","21","21","attributepractice","2","attributeA","3","18","1","449","8","Wonderful","","","0","0"
"121416","21:22:14","21","21","attributepractice","2","attributeA","4","18","1","460","4","Love","","","0","0"
"121416","21:22:14","21","21","attributepractice","2","attributeA","5","18","1","425","5","Glorious","","","0","0"
"121416","21:22:14","21","21","attributepractice","2","attributeA","6","18","1","399","6","Pleasure","","","0","0"
"121416","21:22:14","21","21","attributepractice","2","attributeA","7","18","1","356","7","Peace","","","0","0"
"121416","21:22:14","21","21","attributepractice","2","attributeB","8","23","0","545","4","Nasty","","","0","0"
"121416","21:22:14","21","21","attributepractice","2","attributeA","9","18","1","570","3","Laughter","","","0","0"
"121416","21:22:14","21","21","attributepractice","2","attributeB","10","23","1","538","2","Agony","","","0","0"
"121416","21:22:14","21","21","attributepractice","2","attributeA","11","18","1","411","2","Happy","","","0","0"
"121416","21:22:14","21","21","attributepractice","2","attributeB","12","23","1","384","3","Awful","","","0","0"
"121416","21:22:14","21","21","attributepractice","2","attributeB","13","23","0","701","6","Horrible","","","0","0"
"121416","21:22:14","21","21","attributepractice","2","attributeB","14","23","1","475","7","Failure","","","0","0"
"121416","21:22:14","21","21","attributepractice","2","attributeA","15","18","0","654","1","Joy","","","0","0"
"121416","21:22:14","21","21","attributepractice","2","attributeB","16","23","1","474","5","Terrible","","","0","0"
"121416","21:22:14","21","21","attributepractice","2","attributeB","17","23","1","655","8","Hurt","","","0","0"
"121416","21:22:14","21","21","attributepractice","2","attributeB","18","23","1","421","6","Horrible","","","0","0"
"121416","21:22:14","21","21","attributepractice","2","attributeA","19","18","1","398","2","Happy","","","0","0"
"121416","21:22:14","21","21","attributepractice","2","attributeA","20","18","1","518","8","Wonderful","","","0","0"
"121416","21:22:14","21","21","attributepractice","2","attributeB","21","23","0","588","2","Agony","","","0","0"
"121416","21:22:14","21","21","compatibletest1","3","attributeA","2","18","1","1024","3","Laughter","","","0","100"
"121416","21:22:14","21","21","compatibletest1","3","targetAleft","3","18","1","630","6","flower6.jpg","-1.2767234239009794816","","-0.6383617119504897408","100"
"121416","21:22:14","21","21","compatibletest1","3","attributeB","4","23","1","599","3","Awful","-1.4516655019643955882","","-0.7258327509821977941","100"
"121416","21:22:14","21","21","compatibletest1","3","targetBright","5","23","0","1032","1","insect1.jpg","-1.5465522925393413445","","-0.7732761462696706722","75"
"121416","21:22:14","21","21","compatibletest1","3","attributeB","6","23","1","625","8","Hurt","-1.5907005035045349572","","-0.7953502517522674786","80"
"121416","21:22:14","21","21","compatibletest1","3","targetAleft","7","18","1","581","2","flower2.jpg","-1.6132425604069704494","","-0.8066212802034852247","83.3333333333333285964"
"121416","21:22:14","21","21","compatibletest1","3","attributeB","8","23","1","468","1","Evil","-1.59632117392822237","","-0.798160586964111185","85.7142857142857081953"
"121416","21:22:14","21","21","compatibletest1","3","targetAleft","9","18","1","516","3","flower3.jpg","-1.6051120715163491592","","-0.8025560357581745796","87.5"
"121416","21:22:14","21","21","compatibletest1","3","attributeA","10","18","1","658","1","Joy","-1.6399787316421188255","","-0.8199893658210594127","88.8888888888888857309"
"121416","21:22:14","21","21","compatibletest1","3","targetBright","11","23","1","442","4","insect4.jpg","-1.6275560625984473173","","-0.8137780312992236587","90"
"121416","21:22:14","21","21","compatibletest1","3","attributeA","12","18","1","458","5","Glorious","-1.6248368670674160352","","-0.8124184335337080176","90.9090909090909065071"
"121416","21:22:14","21","21","compatibletest1","3","targetBright","13","23","1","537","5","insect5.jpg","-1.6399385052220114556","","-0.8199692526110057278","91.6666666666666714036"
"121416","21:22:14","21","21","compatibletest1","3","attributeB","14","23","0","790","7","Failure","-1.6598478341297759897","","-0.8299239170648879949","84.6153846153846131983"
"121416","21:22:14","21","21","compatibletest1","3","targetBright","15","23","1","477","1","insect1.jpg","-1.661034252051911686","","-0.830517126025955843","85.7142857142857081953"
"121416","21:22:14","21","21","compatibletest1","3","attributeA","16","18","1","491","4","Love","-1.6656844467683282751","","-0.8328422233841641376","86.6666666666666714036"
"121416","21:22:14","21","21","compatibletest1","3","targetBright","17","23","0","743","2","insect2.jpg","-1.6823673786967026089","","-0.8411836893483513045","81.25"
"121416","21:22:14","21","21","compatibletest1","3","attributeA","18","18","1","770","6","Pleasure","-1.6960848077258494637","","-0.8480424038629247319","82.3529411764705940868"
"121416","21:22:14","21","21","compatibletest1","3","targetAleft","19","18","1","637","1","flower1.jpg","-1.7102457458198969675","","-0.8551228729099484838","83.3333333333333285964"
"121416","21:22:14","21","21","compatibletest1","3","attributeB","20","23","1","510","4","Nasty","-1.7137309558212328042","","-0.8568654779106164021","84.2105263157894796677"
"121416","21:22:14","21","21","compatibletest1","3","targetAleft","21","18","1","441","5","flower5.jpg","-1.708362457751453789","","-0.8541812288757268945","85"
"121416","21:22:14","21","21","compatibletest2","5","attributeA","1","18","1","704","7","Peace","-1.708362457751453789","","-0.8541812288757268945","85.7142857142857081953"
"121416","21:22:14","21","21","compatibletest2","5","targetAleft","2","18","1","459","6","flower6.jpg","-1.708362457751453789","-1.3032626500694248772","-1.5058125539104394441","86.3636363636363597607"
"121416","21:22:14","21","21","compatibletest2","5","attributeB","3","23","1","574","5","Terrible","-1.708362457751453789","-1.5433670063643532","-1.6258647320579036055","86.9565217391304372541"
"121416","21:22:14","21","21","compatibletest2","5","targetAleft","4","18","0","562","2","flower2.jpg","-1.708362457751453789","-1.6577695155677456551","-1.683065986659599611","83.3333333333333285964"
"121416","21:22:14","21","21","compatibletest2","5","attributeB","5","23","1","454","2","Agony","-1.708362457751453789","-1.6974078527640099612","-1.7028851552577317641","84"
"121416","21:22:14","21","21","compatibletest2","5","targetAleft","6","18","1","466","4","flower4.jpg","-1.708362457751453789","-1.7321890025650459322","-1.7202757301582498606","84.6153846153846131983"
"121416","21:22:14","21","21","compatibletest2","5","attributeB","7","23","1","420","6","Horrible","-1.708362457751453789","-1.7450686647829403153","-1.7267155612671971632","85.1851851851851904485"
"121416","21:22:14","21","21","compatibletest2","5","targetAleft","8","18","1","495","5","flower5.jpg","-1.708362457751453789","-1.7737341832036390699","-1.7410483204775464294","85.7142857142857081953"
"121416","21:22:14","21","21","compatibletest2","5","attributeB","9","23","1","397","3","Awful","-1.708362457751453789","-1.7756594753230414696","-1.7420109665372476293","86.2068965517241423413"
"121416","21:22:14","21","21","compatibletest2","5","targetBright","10","23","0","540","4","insect4.jpg","-1.708362457751453789","-1.7967477607837027964","-1.7525551092675784037","83.3333333333333285964"
"121416","21:22:14","21","21","compatibletest2","5","attributeB","11","23","0","724","7","Failure","-1.708362457751453789","-1.7758881117021623197","-1.7421252847268080544","80.6451612903225765194"
"121416","21:22:14","21","21","compatibletest2","5","targetBright","12","23","0","637","6","insect6.jpg","-1.708362457751453789","-1.7868435548851822059","-1.7476030063183181085","78.125"
"121416","21:22:14","21","21","compatibletest2","5","attributeA","13","18","1","468","1","Joy","-1.708362457751453789","-1.7962434567614868897","-1.7523029572564703393","78.7878787878787818499"
"121416","21:22:14","21","21","compatibletest2","5","targetAleft","14","18","0","751","1","flower1.jpg","-1.708362457751453789","-1.7820932065581576165","-1.7452278321548055917","76.4705882352941159752"
"121416","21:22:14","21","21","compatibletest2","5","attributeA","15","18","1","457","4","Love","-1.708362457751453789","-1.787395472082477621","-1.747878964916965705","77.1428571428571387969"
"121416","21:22:14","21","21","compatibletest2","5","targetBright","16","23","1","489","3","insect3.jpg","-1.708362457751453789","-1.7963679242733221475","-1.7523651910123878572","77.7777777777777714618"
"121416","21:22:14","21","21","compatibletest2","5","attributeA","17","18","1","488","6","Pleasure","-1.708362457751453789","-1.8045424733754038549","-1.7564524655634288219","78.3783783783783718491"
"121416","21:22:14","21","21","compatibletest2","5","targetAleft","18","18","1","839","2","flower2.jpg","-1.708362457751453789","-1.7724009100000284178","-1.7403816838757411034","78.9473684210526300831"
"121416","21:22:14","21","21","compatibletest2","5","attributeB","19","23","1","495","5","Terrible","-1.708362457751453789","-1.7799411281413877184","-1.7441517929464207537","79.4871794871794890014"
"121416","21:22:14","21","21","compatibletest2","5","targetBright","20","23","1","561","6","insect6.jpg","-1.708362457751453789","-1.7900097583856149352","-1.7491861080685342511","80"
"121416","21:22:14","21","21","compatibletest2","5","attributeA","21","18","1","445","2","Happy","-1.708362457751453789","-1.7914869371758121996","-1.7499246974636331053","80.4878048780487773683"
"121416","21:22:14","21","21","compatibletest2","5","targetBright","22","23","1","489","3","insect3.jpg","-1.708362457751453789","-1.7973511099861538831","-1.7528567838688038361","80.9523809523809489974"
"121416","21:22:14","21","21","compatibletest2","5","attributeB","23","23","0","806","4","Nasty","-1.708362457751453789","-1.7819805647801663095","-1.7451715112658099383","79.0697674418604634639"
"121416","21:22:14","21","21","compatibletest2","5","targetBright","24","23","1","460","5","insect5.jpg","-1.708362457751453789","-1.7845340637635196401","-1.7464482607574867146","79.5454545454545467464"
"121416","21:22:14","21","21","compatibletest2","5","attributeA","25","18","1","479","8","Wonderful","-1.708362457751453789","-1.78876282249883789","-1.7485626401251459505","80"
"121416","21:22:14","21","21","compatibletest2","5","targetAleft","26","18","0","618","4","flower4.jpg","-1.708362457751453789","-1.7955187016103117958","-1.7519405796808826814","78.2608695652173906865"
"121416","21:22:14","21","21","compatibletest2","5","attributeB","27","23","1","471","8","Hurt","-1.708362457751453789","-1.798550246556209542","-1.7534563521538315545","78.7234042553191528668"
"121416","21:22:14","21","21","compatibletest2","5","targetBright","28","23","1","523","4","insect4.jpg","-1.708362457751453789","-1.8043391539083162289","-1.75635080582988512","79.1666666666666714036"
"121416","21:22:14","21","21","compatibletest2","5","attributeB","29","23","0","850","1","Evil","-1.708362457751453789","-1.7853085824055006103","-1.7468355200784773107","77.5510204081632679163"
"121416","21:22:14","21","21","compatibletest2","5","targetBright","30","23","1","525","1","insect1.jpg","-1.708362457751453789","-1.7907334202069773443","-1.7495479389792156777","78"
"121416","21:22:14","21","21","compatibletest2","5","attributeB","31","23","1","368","8","Hurt","-1.708362457751453789","-1.7827071020747302654","-1.7455347799130920272","78.431372549019613416"
"121416","21:22:14","21","21","compatibletest2","5","targetAleft","32","18","1","556","6","flower6.jpg","-1.708362457751453789","-1.7887570373019154868","-1.7485597475266847489","78.846153846153839595"
"121416","21:22:14","21","21","compatibletest2","5","attributeA","33","18","1","402","3","Laughter","-1.708362457751453789","-1.7855531810002496229","-1.746957819375851706","79.2452830188679229195"
"121416","21:22:14","21","21","compatibletest2","5","targetBright","34","23","1","469","2","insect2.jpg","-1.708362457751453789","-1.7881562569568740795","-1.7482593573541638232","79.6296296296296333139"
"121416","21:22:14","21","21","compatibletest2","5","attributeA","35","18","1","456","5","Glorious","-1.708362457751453789","-1.7899410957341581607","-1.7491517767428059749","80"
"121416","21:22:14","21","21","compatibletest2","5","targetBright","36","23","1","498","1","insect1.jpg","-1.708362457751453789","-1.7939012849460977961","-1.7511318713487757925","80.3571428571428612031"
"121416","21:22:14","21","21","compatibletest2","5","attributeA","37","18","1","552","7","Peace","-1.708362457751453789","-1.7989455578798441149","-1.7536540078156488409","80.7017543859649180149"
"121416","21:22:14","21","21","compatibletest2","5","targetAleft","38","18","1","458","3","flower3.jpg","-1.708362457751453789","-1.8006678446975172836","-1.7545151512244856473","81.0344827586206832848"
"121416","21:22:14","21","21","compatibletest2","5","attributeA","39","18","1","400","7","Peace","-1.708362457751453789","-1.7982854333815194714","-1.7533239455664866302","81.3559322033898268955"
"121416","21:22:14","21","21","compatibletest2","5","targetAleft","40","18","1","462","2","flower2.jpg","-1.708362457751453789","-1.8003877286138267877","-1.7543750931826402883","81.6666666666666714036"
"121416","21:22:14","21","21","targetincompatiblepractice","6","targetBleft","2","18","1","642","2","insect2.jpg","-1.708362457751453789","-1.8003877286138267877","-1.7543750931826402883","81.6666666666666714036"
"121416","21:22:14","21","21","targetincompatiblepractice","6","targetBleft","3","18","1","350","6","insect6.jpg","-1.708362457751453789","-1.8003877286138267877","-1.7543750931826402883","81.6666666666666714036"
"121416","21:22:14","21","21","targetincompatiblepractice","6","targetAright","4","23","0","524","3","flower3.jpg","-1.708362457751453789","-1.8003877286138267877","-1.7543750931826402883","81.6666666666666714036"
"121416","21:22:14","21","21","targetincompatiblepractice","6","targetAright","5","23","1","456","5","flower5.jpg","-1.708362457751453789","-1.8003877286138267877","-1.7543750931826402883","81.6666666666666714036"
"121416","21:22:14","21","21","targetincompatiblepractice","6","targetAright","6","23","1","383","6","flower6.jpg","-1.708362457751453789","-1.8003877286138267877","-1.7543750931826402883","81.6666666666666714036"
"121416","21:22:14","21","21","targetincompatiblepractice","6","targetAright","7","23","1","374","1","flower1.jpg","-1.708362457751453789","-1.8003877286138267877","-1.7543750931826402883","81.6666666666666714036"
"121416","21:22:14","21","21","targetincompatiblepractice","6","targetBleft","8","18","1","393","4","insect4.jpg","-1.708362457751453789","-1.8003877286138267877","-1.7543750931826402883","81.6666666666666714036"
"121416","21:22:14","21","21","targetincompatiblepractice","6","targetBleft","9","18","1","415","5","insect5.jpg","-1.708362457751453789","-1.8003877286138267877","-1.7543750931826402883","81.6666666666666714036"
"121416","21:22:14","21","21","targetincompatiblepractice","6","targetAright","10","23","1","420","4","flower4.jpg","-1.708362457751453789","-1.8003877286138267877","-1.7543750931826402883","81.6666666666666714036"
"121416","21:22:14","21","21","targetincompatiblepractice","6","targetAright","11","23","0","688","5","flower5.jpg","-1.708362457751453789","-1.8003877286138267877","-1.7543750931826402883","81.6666666666666714036"
"121416","21:22:14","21","21","targetincompatiblepractice","6","targetBleft","12","18","1","535","3","insect3.jpg","-1.708362457751453789","-1.8003877286138267877","-1.7543750931826402883","81.6666666666666714036"
"121416","21:22:14","21","21","targetincompatiblepractice","6","targetAright","13","23","1","608","3","flower3.jpg","-1.708362457751453789","-1.8003877286138267877","-1.7543750931826402883","81.6666666666666714036"
"121416","21:22:14","21","21","targetincompatiblepractice","6","targetBleft","14","18","1","472","4","insect4.jpg","-1.708362457751453789","-1.8003877286138267877","-1.7543750931826402883","81.6666666666666714036"
"121416","21:22:14","21","21","targetincompatiblepractice","6","targetBleft","15","18","1","553","1","insect1.jpg","-1.708362457751453789","-1.8003877286138267877","-1.7543750931826402883","81.6666666666666714036"
"121416","21:22:14","21","21","targetincompatiblepractice","6","targetAright","16","23","1","537","2","flower2.jpg","-1.708362457751453789","-1.8003877286138267877","-1.7543750931826402883","81.6666666666666714036"
"121416","21:22:14","21","21","targetincompatiblepractice","6","targetBleft","17","18","1","794","5","insect5.jpg","-1.708362457751453789","-1.8003877286138267877","-1.7543750931826402883","81.6666666666666714036"
"121416","21:22:14","21","21","targetincompatiblepractice","6","targetAright","18","23","1","455","6","flower6.jpg","-1.708362457751453789","-1.8003877286138267877","-1.7543750931826402883","81.6666666666666714036"
"121416","21:22:14","21","21","targetincompatiblepractice","6","targetBleft","19","18","0","782","3","insect3.jpg","-1.708362457751453789","-1.8003877286138267877","-1.7543750931826402883","81.6666666666666714036"
"121416","21:22:14","21","21","targetincompatiblepractice","6","targetBleft","20","18","1","449","2","insect2.jpg","-1.708362457751453789","-1.8003877286138267877","-1.7543750931826402883","81.6666666666666714036"
"121416","21:22:14","21","21","targetincompatiblepractice","6","targetAright","21","23","1","355","4","flower4.jpg","-1.708362457751453789","-1.8003877286138267877","-1.7543750931826402883","81.6666666666666714036"
"121416","21:22:14","21","21","incompatibletest1","7","attributeA","2","18","0","1290","1","Joy","1.7467554602426604848","-1.8003877286138267877","-0.0268161341855832139","80.327868852459019422"
"121416","21:22:14","21","21","incompatibletest1","7","targetAright","3","23","1","941","1","flower1.jpg","1.6062930156556816108","-1.8003877286138267877","-0.097047356479072644","80.6451612903225765194"
"121416","21:22:14","21","21","incompatibletest1","7","attributeA","4","18","0","935","4","Love","1.5391246524533932494","-1.8003877286138267877","-0.1306315380802168524","79.3650793650793673351"
"121416","21:22:14","21","21","incompatibletest1","7","targetBleft","5","18","1","815","6","insect6.jpg","1.4410633319097383431","-1.8003877286138267877","-0.1796621983520442778","79.6875"
"121416","21:22:14","21","21","incompatibletest1","7","attributeB","6","23","0","1000","5","Terrible","1.4573658222034464593","-1.8003877286138267877","-0.1715109532051901919","78.4615384615384670042"
"121416","21:22:14","21","21","incompatibletest1","7","targetBleft","7","18","0","871","3","insect3.jpg","1.4275648565877443463","-1.8003877286138267877","-0.1864114360130412484","77.2727272727272662678"
"121416","21:22:14","21","21","incompatibletest1","7","attributeA","8","18","0","1194","8","Wonderful","1.4783830868293541538","-1.8003877286138267877","-0.1610023208922363169","76.1194029850746289867"
"121416","21:22:14","21","21","incompatibletest1","7","targetAright","9","23","1","1090","1","flower1.jpg","1.5052072598544268267","-1.8003877286138267877","-0.147590234379700036","76.4705882352941159752"
"121416","21:22:14","21","21","incompatibletest1","7","attributeA","10","18","1","1004","3","Laughter","1.5146925513511004802","-1.8003877286138267877","-0.1428475886313632093","76.8115942028985472234"
"121416","21:22:14","21","21","incompatibletest1","7","targetAright","11","23","1","589","5","flower5.jpg","1.38787748104903641","-1.8003877286138267877","-0.2062551237823952444","77.1428571428571387969"
"121416","21:22:14","21","21","incompatibletest1","7","attributeB","12","23","0","1183","2","Agony","1.4218670972827194277","-1.8003877286138267877","-0.1892603156655537078","76.0563380281690086804"
"121416","21:22:14","21","21","incompatibletest1","7","targetBleft","13","18","0","864","2","insect2.jpg","1.408258668044666484","-1.8003877286138267877","-0.1960645302845801519","75"
"121416","21:22:14","21","21","incompatibletest1","7","attributeB","14","23","1","898","6","Horrible","1.4049378792388813597","-1.8003877286138267877","-0.1977249246874727417","75.3424657534246620116"
"121416","21:22:14","21","21","incompatibletest1","7","targetBleft","15","18","1","1160","4","insect4.jpg","1.4301296777702299234","-1.8003877286138267877","-0.1851290254217984876","75.675675675675677212"
"121416","21:22:14","21","21","incompatibletest1","7","attributeB","16","23","1","905","4","Nasty","1.4281256972671521055","-1.8003877286138267877","-0.1861310156733373411","76"
"121416","21:22:14","21","21","incompatibletest1","7","targetBleft","17","18","1","1084","1","insect1.jpg","1.4467834168085709212","-1.8003877286138267877","-0.1768021559026279332","76.3157894736842052907"
"121416","21:22:14","21","21","incompatibletest1","7","attributeA","18","18","0","1231","2","Happy","1.4645411311548308664","-1.8003877286138267877","-0.1679232987294980162","75.3246753246753257827"
"121416","21:22:14","21","21","incompatibletest1","7","targetAright","19","23","1","1252","6","flower6.jpg","1.4800618815708819209","-1.8003877286138267877","-0.1601629235214724334","75.6410256410256351955"
"121416","21:22:14","21","21","incompatibletest1","7","attributeB","20","23","0","1018","1","Evil","1.4890358421105909237","-1.8003877286138267877","-0.155675943251617932","74.6835443037974613389"
"121416","21:22:14","21","21","incompatibletest1","7","targetAright","21","23","1","597","3","flower3.jpg","1.4165848007675203579","-1.8003877286138267877","-0.1919014639231532704","75"
"121416","21:22:14","21","21","incompatibletest2","9","attributeB","1","23","0","1307","7","Failure","1.4165848007675203579","1.8893610198755992347","1.6529729103215597963","74.0740740740740761794"
"121416","21:22:14","21","21","incompatibletest2","9","targetBleft","2","18","0","1068","5","insect5.jpg","1.4165848007675203579","1.8560329663385686239","1.6363088835530446019","73.1707317073170742106"
"121416","21:22:14","21","21","incompatibletest2","9","attributeA","3","18","0","1487","5","Glorious","1.4165848007675203579","1.8778372378788985575","1.6472110193232094577","72.2891566265060276919"
"121416","21:22:14","21","21","incompatibletest2","9","targetAright","4","23","1","743","4","flower4.jpg","1.4165848007675203579","1.797718874525277899","1.6071518376463991284","72.619047619047620401"
"121416","21:22:14","21","21","incompatibletest2","9","attributeB","5","23","0","921","3","Awful","1.4165848007675203579","1.768438537370026431","1.5925116690687735055","71.7647058823529420124"
"121416","21:22:14","21","21","incompatibletest2","9","targetAright","6","23","0","739","2","flower2.jpg","1.4165848007675203579","1.7062932623815720845","1.5614390315745463322","70.9302325581395365361"
"121416","21:22:14","21","21","incompatibletest2","9","attributeB","7","23","1","331","2","Agony","1.4165848007675203579","1.4980098618421890944","1.4572973313048547261","71.2643678160919478159"
"121416","21:22:14","21","21","incompatibletest2","9","targetAright","8","23","1","736","5","flower5.jpg","1.4165848007675203579","1.4546397058891251675","1.4356122533283226517","71.5909090909090934929"
"121416","21:22:14","21","21","incompatibletest2","9","attributeA","9","18","1","828","6","Pleasure","1.4165848007675203579","1.4429351663068592515","1.4297599835371899157","71.9101123595505669073"
"121416","21:22:14","21","21","incompatibletest2","9","targetAright","10","23","1","948","6","flower6.jpg","1.4165848007675203579","1.4570541373247161143","1.4368194690461182361","72.2222222222222285382"
"121416","21:22:14","21","21","incompatibletest2","9","attributeA","11","18","1","889","6","Pleasure","1.4165848007675203579","1.4603598664876065172","1.4384723336275635486","72.5274725274725255986"
"121416","21:22:14","21","21","incompatibletest2","9","targetAright","12","23","1","715","3","flower3.jpg","1.4165848007675203579","1.4300690446512545062","1.4233269227093874321","72.8260869565217348054"
"121416","21:22:14","21","21","incompatibletest2","9","attributeA","13","18","1","519","1","Joy","1.4165848007675203579","1.3505235973608509248","1.3835541990641855303","73.1182795698924792305"
"121416","21:22:14","21","21","incompatibletest2","9","targetAright","14","23","1","705","4","flower4.jpg","1.4165848007675203579","1.3272456298882435721","1.371915215327881965","73.4042553191489304254"
"121416","21:22:14","21","21","incompatibletest2","9","attributeB","15","23","0","896","5","Terrible","1.4165848007675203579","1.3403434536523086695","1.3784641272099145137","72.6315789473684247923"
"121416","21:22:14","21","21","incompatibletest2","9","targetAright","16","23","1","447","2","flower2.jpg","1.4165848007675203579","1.253968172414007709","1.3352764865907640335","72.9166666666666714036"
"121416","21:22:14","21","21","incompatibletest2","9","attributeB","17","23","0","775","8","Hurt","1.4165848007675203579","1.2520579692044391251","1.3343213849859796305","72.1649484536082468367"
"121416","21:22:14","21","21","incompatibletest2","9","targetBleft","18","18","0","848","6","insect6.jpg","1.4165848007675203579","1.2617100857418637183","1.3391474432546921491","71.4285714285714306016"
"121416","21:22:14","21","21","incompatibletest2","9","attributeA","19","18","0","476","8","Wonderful","1.4165848007675203579","1.1964969898594290942","1.3065408953134747261","70.707070707070712956"
"121416","21:22:14","21","21","incompatibletest2","9","targetBleft","20","18","0","962","1","insect1.jpg","1.4165848007675203579","1.2194440363270153682","1.3180144185472679741","70"
"121416","21:22:14","21","21","incompatibletest2","9","attributeB","21","23","1","758","4","Nasty","1.4165848007675203579","1.2177506835352198689","1.3171677421513701134","70.2970297029702919644"
"121416","21:22:14","21","21","incompatibletest2","9","targetBleft","22","18","1","1133","3","insect3.jpg","1.4165848007675203579","1.2441102172982152485","1.3303475090328678032","70.5882352941176520744"
"121416","21:22:14","21","21","incompatibletest2","9","attributeA","23","18","1","814","7","Peace","1.4165848007675203579","1.2486480070787324692","1.3326164039231263025","70.8737864077669854623"
"121416","21:22:14","21","21","incompatibletest2","9","targetBleft","24","18","0","917","4","insect4.jpg","1.4165848007675203579","1.2627391201722040215","1.3396619604698620787","70.1923076923076934008"
"121416","21:22:14","21","21","incompatibletest2","9","attributeB","25","23","1","565","3","Awful","1.4165848007675203579","1.2294354748790052856","1.3230101378232628218","70.4761904761904816041"
"121416","21:22:14","21","21","incompatibletest2","9","targetBleft","26","18","1","879","2","insect2.jpg","1.4165848007675203579","1.2406034767334392921","1.328594138750479825","70.7547169811320770805"
"121416","21:22:14","21","21","incompatibletest2","9","attributeB","27","23","1","888","1","Evil","1.4165848007675203579","1.2519057341815991169","1.3342452674745597374","71.0280373831775762028"
"121416","21:22:14","21","21","incompatibletest2","9","targetAright","28","23","0","1192","1","flower1.jpg","1.4165848007675203579","1.2688009343752397751","1.3426928675713800665","70.3703703703703666861"
"121416","21:22:14","21","21","incompatibletest2","9","attributeB","29","23","1","550","6","Horrible","1.4165848007675203579","1.2367399833601158132","1.3266623920638180856","70.6422018348623907968"
"121416","21:22:14","21","21","incompatibletest2","9","targetBleft","30","18","1","1215","5","insect5.jpg","1.4165848007675203579","1.2523336952861607863","1.3344592480268404611","70.9090909090909065071"
"121416","21:22:14","21","21","incompatibletest2","9","attributeA","31","18","0","1009","5","Glorious","1.4165848007675203579","1.2668103199264557635","1.3416975603469880607","70.270270270270273727"
"121416","21:22:14","21","21","incompatibletest2","9","targetBleft","32","18","0","979","6","insect6.jpg","1.4165848007675203579","1.279469686794976635","1.3480272437812483854","69.6428571428571387969"
"121416","21:22:14","21","21","incompatibletest2","9","attributeA","33","18","0","679","3","Laughter","1.4165848007675203579","1.2682771610027177012","1.3424309808851191406","69.0265486725663777179"
"121416","21:22:14","21","21","incompatibletest2","9","targetAright","34","23","1","885","3","flower3.jpg","1.4165848007675203579","1.2760228372088620041","1.346303818988191292","69.2982456140350819851"
"121416","21:22:14","21","21","incompatibletest2","9","attributeB","35","23","0","984","7","Failure","1.4165848007675203579","1.2877882796470190296","1.3521865402072696938","68.6956521739130465676"
"121416","21:22:14","21","21","incompatibletest2","9","targetBleft","36","18","0","946","1","insect1.jpg","1.4165848007675203579","1.2977336309756775101","1.357159215871599045","68.1034482758620640652"
"121416","21:22:14","21","21","incompatibletest2","9","attributeA","37","18","0","527","4","Love","1.4165848007675203579","1.2675483585752134186","1.3420665796713668882","67.521367521367523068"
"121416","21:22:14","21","21","incompatibletest2","9","targetAright","38","23","1","329","5","flower5.jpg","1.4165848007675203579","1.2048944095799261067","1.3107396051737232323","67.7966101694915295184"
"121416","21:22:14","21","21","incompatibletest2","9","attributeA","39","18","1","948","2","Happy","1.4165848007675203579","1.2157356010226463283","1.3161602008950834541","68.0672268907563022822"
"121416","21:22:14","21","21","incompatibletest2","9","targetBleft","40","18","1","801","6","insect6.jpg","1.4165848007675203579","1.2183868942328335283","1.3174858475001769431","68.3333333333333285964"
"121516","03:20:58","20","20","targetincompatiblepractice","1","targetBleft","2","18","1","797","1","bf14_nc.jpg","","","0","0"
"121516","03:20:58","20","20","targetincompatiblepractice","1","targetBleft","3","18","1","401","4","bm14_nc.jpg","","","0","0"
"121516","03:20:58","20","20","targetincompatiblepractice","1","targetAright","4","23","1","485","2","wf3_nc.jpg","","","0","0"
"121516","03:20:58","20","20","targetincompatiblepractice","1","targetBleft","5","18","1","526","3","bf56_nc.jpg","","","0","0"
"121516","03:20:58","20","20","targetincompatiblepractice","1","targetBleft","6","18","1","429","5","bm23_nc.jpg","","","0","0"
"121516","03:20:58","20","20","targetincompatiblepractice","1","targetBleft","7","18","1","576","2","bf23_nc.jpg","","","0","0"
"121516","03:20:58","20","20","targetincompatiblepractice","1","targetAright","8","23","1","501","6","wm6_nc.jpg","","","0","0"
"121516","03:20:58","20","20","targetincompatiblepractice","1","targetAright","9","23","1","438","5","wm4_nc.jpg","","","0","0"
"121516","03:20:58","20","20","targetincompatiblepractice","1","targetBleft","10","18","1","463","6","bm56_nc.jpg","","","0","0"
"121516","03:20:58","20","20","targetincompatiblepractice","1","targetBleft","11","18","1","474","4","bm14_nc.jpg","","","0","0"
"121516","03:20:58","20","20","targetincompatiblepractice","1","targetBleft","12","18","1","427","2","bf23_nc.jpg","","","0","0"
"121516","03:20:58","20","20","targetincompatiblepractice","1","targetBleft","13","18","1","422","6","bm56_nc.jpg","","","0","0"
"121516","03:20:58","20","20","targetincompatiblepractice","1","targetAright","14","23","1","505","1","wf2_nc.jpg","","","0","0"
"121516","03:20:58","20","20","targetincompatiblepractice","1","targetAright","15","23","1","481","4","wm1_nc.jpg","","","0","0"
"121516","03:20:58","20","20","targetincompatiblepractice","1","targetAright","16","23","1","402","3","wf6_nc.jpg","","","0","0"
"121516","03:20:58","20","20","targetincompatiblepractice","1","targetAright","17","23","1","423","2","wf3_nc.jpg","","","0","0"
"121516","03:20:58","20","20","targetincompatiblepractice","1","targetAright","18","23","1","666","5","wm4_nc.jpg","","","0","0"
"121516","03:20:58","20","20","targetincompatiblepractice","1","targetAright","19","23","1","411","6","wm6_nc.jpg","","","0","0"
"121516","03:20:58","20","20","targetincompatiblepractice","1","targetBleft","20","18","1","608","3","bf56_nc.jpg","","","0","0"
"121516","03:20:58","20","20","targetincompatiblepractice","1","targetAright","21","23","1","555","3","wf6_nc.jpg","","","0","0"
"121516","03:20:58","20","20","attributepractice","2","attributeB","2","23","1","958","5","Terrible","","","0","0"
"121516","03:20:58","20","20","attributepractice","2","attributeB","3","23","1","379","4","Nasty","","","0","0"
"121516","03:20:58","20","20","attributepractice","2","attributeB","4","23","1","464","8","Hurt","","","0","0"
"121516","03:20:58","20","20","attributepractice","2","attributeA","5","18","1","530","4","Love","","","0","0"
"121516","03:20:58","20","20","attributepractice","2","attributeA","6","18","1","401","7","Peace","","","0","0"
"121516","03:20:58","20","20","attributepractice","2","attributeA","7","18","1","437","1","Joy","","","0","0"
