"date","time","group","subject","blockcode","blocknum","trialcode","trialnum","response","correct","latency","stimulusnumber1","stimulusitem1","expressions.d","expressions.latdiff","expressions.percentcorrect"
"121516","10:27:57","19","19","practice_compatibletest","1","attributeA","2","18","1","1585","1","Joy","","0","0"
"121516","10:27:57","19","19","practice_compatibletest","1","attributeB","3","23","1","779","5","Terrible","","0","0"
"121516","10:27:57","19","19","practice_compatibletest","1","attributeA","4","18","1","891","2","Happy","","0","0"
"121516","10:27:57","19","19","practice_compatibletest","1","attributeB","5","23","1","738","6","Horrible","","0","0"
"121516","10:27:57","19","19","practice_compatibletest","1","attributeA","6","18","1","725","7","Peace","","0","0"
"121516","10:27:57","19","19","practice_compatibletest","1","attributeB","7","23","1","769","8","Hurt","","0","0"
"121516","10:27:57","19","19","practice_compatibletest","1","attributeB","8","23","1","912","4","Nasty","","0","0"
"121516","10:27:57","19","19","practice_compatibletest","1","attributeA","9","18","1","608","4","Love","","0","0"
"121516","10:27:57","19","19","practice_compatibletest","1","attributeA","10","18","1","1268","3","Laughter","","0","0"
"121516","10:27:57","19","19","practice_compatibletest","1","attributeB","11","23","1","623","1","Evil","","0","0"
"121516","10:27:57","19","19","compatibletest","3","attributeA","1","18","1","1703","5","Glorious","","-1703","100"
"121516","10:27:57","19","19","compatibletest","3","attributeB","2","23","1","745","3","Awful","-1.1136618522961241329","-1224","100"
"121516","10:27:57","19","19","compatibletest","3","attributeB","3","23","0","1807","2","Agony","-1.3541056646879445768","-1418.3333333333332575421","66.6666666666666571928"
"121516","10:27:57","19","19","compatibletest","3","attributeB","4","23","1","784","7","Failure","-1.3599452389080457504","-1259.75","75"
"121516","10:27:57","19","19","compatibletest","3","attributeB","5","23","1","761","4","Nasty","-1.3698680188718559414","-1160","80"
"121516","10:27:57","19","19","compatibletest","3","attributeA","6","18","1","637","6","Pleasure","-1.3536517410446720078","-1072.8333333333332575421","83.3333333333333428072"
"121516","10:27:57","19","19","compatibletest","3","targetAleft","7","18","1","606","4","bm14_nc.jpg","-1.3420076372388303199","-1006.1428571428571103752","85.7142857142857081953"
"121516","10:27:57","19","19","compatibletest","3","attributeA","8","18","1","651","8","Wonderful","-1.3483656794198259909","-961.75","87.5"
"121516","10:27:57","19","19","compatibletest","3","targetAleft","9","18","1","976","6","bm56_nc.jpg","-1.3978305503704546719","-963.3333333333333712289","88.8888888888888857309"
"121516","10:27:57","19","19","compatibletest","3","attributeA","10","18","1","1293","7","Peace","-1.4429051356962019348","-996.2999999999999545253","90"
"121516","10:27:57","19","19","compatibletest","3","targetAleft","11","18","1","530","3","bf56_nc.jpg","-1.4205263568189145928","-953.9090909090908780854","90.9090909090909065071"
"121516","10:27:57","19","19","compatibletest","3","attributeB","12","23","1","617","1","Evil","-1.4190145298000769181","-925.8333333333333712289","91.6666666666666571928"
"121516","10:27:57","19","19","compatibletest","3","targetAleft","13","18","1","541","5","bm23_nc.jpg","-1.4085411475207505472","-896.2307692307692832401","92.3076923076923065992"
"121516","10:27:57","19","19","compatibletest","3","attributeB","14","23","1","1039","8","Hurt","-1.4412009104854297536","-906.4285714285714448124","92.8571428571428612031"
"121516","10:27:57","19","19","compatibletest","3","targetAleft","15","18","1","578","1","bf14_nc.jpg","-1.4374209389947145699","-884.5333333333333030168","93.3333333333333285964"
"121516","10:27:57","19","19","compatibletest","3","attributeB","16","23","1","810","3","Awful","-1.4571373959853821667","-879.875","93.75"
"121516","10:27:57","19","19","compatibletest","3","targetAleft","17","18","1","605","2","bf23_nc.jpg","-1.4580889591122760951","-863.7058823529412165954","94.1176470588235218884"
"121516","10:27:57","19","19","compatibletest","3","attributeB","18","23","1","652","6","Horrible","-1.4646029982430872618","-851.9444444444444570763","94.4444444444444428655"
"121516","10:27:57","19","19","compatibletest","3","attributeB","19","23","1","553","7","Failure","-1.4615582019101593936","-836.2105263157894796677","94.7368421052631504153"
"121516","10:27:57","19","19","compatibletest","3","targetAleft","20","18","1","552","4","bm14_nc.jpg","-1.4596190798651600407","-822","95"
"121516","10:27:57","19","19","compatibletest","3","attributeA","21","18","1","730","6","Pleasure","-1.4726355367852375089","-817.6190476190475919793","95.2380952380952265912"
"121516","10:27:57","19","19","compatibletest","3","attributeB","22","23","1","1048","2","Agony","-1.4909995818178185534","-828.0909090909091219146","95.4545454545454532536"
"121516","10:27:57","19","19","compatibletest","3","attributeB","23","23","1","1285","5","Terrible","-1.4989613084348403227","-847.9565217391303804106","95.6521739130434838216"
"121516","10:27:57","19","19","compatibletest","3","attributeA","24","18","1","568","1","Joy","-1.497071508965278408","-836.2916666666666287711","95.8333333333333428072"
"121516","10:27:57","19","19","compatibletest","3","attributeA","25","18","1","574","3","Laughter","-1.4963971637865332021","-825.7999999999999545253","96"
"121516","10:27:57","19","19","compatibletest","3","targetAleft","26","18","1","675","3","bf56_nc.jpg","-1.5031872790613829416","-820","96.153846153846160405"
"121516","10:27:57","19","19","compatibletest","3","attributeA","27","18","1","780","2","Happy","-1.5146648990695201764","-818.5185185185184764123","96.2962962962962905067"
"121516","10:27:57","19","19","compatibletest","3","attributeA","28","18","1","493","4","Love","-1.5080120939811496594","-806.8928571428571103752","96.4285714285714306016"
"121516","10:27:57","19","19","compatibletest","3","attributeB","29","23","1","588","3","Awful","-1.5095374833283166094","-799.3448275862068612696","96.5517241379310320326"
"121516","10:27:57","19","19","compatibletest","3","targetAleft","30","18","1","508","2","bf23_nc.jpg","-1.505554506837249118","-789.6333333333333257542","96.6666666666666714036"
"121516","10:27:57","19","19","compatibletest","3","targetAleft","31","18","1","453","1","bf14_nc.jpg","-1.497748565113956154","-778.7741935483870747703","96.774193548387103192"
"121516","10:27:57","19","19","compatibletest","3","targetAleft","32","18","1","443","5","bm23_nc.jpg","-1.4900101472336069186","-768.28125","96.875"
"121516","10:27:57","19","19","compatibletest","3","attributeB","33","23","1","706","6","Horrible","-1.4985922794703370187","-766.3939393939393767141","96.9696969696969688357"
"121516","10:27:57","19","19","compatibletest","3","targetAleft","34","18","1","665","6","bm56_nc.jpg","-1.5053275553900780093","-763.4117647058823195039","97.0588235294117680496"
"121516","10:27:57","19","19","compatibletest","3","attributeA","35","18","1","594","8","Wonderful","-1.5086104642608904047","-758.5714285714285551876","97.1428571428571387969"
"121516","10:27:57","19","19","compatibletest","3","attributeB","36","23","1","1077","2","Agony","-1.5167117716680671435","-767.4166666666666287711","97.2222222222222143273"
"121516","10:27:57","19","19","compatibletest","3","targetAleft","37","18","1","573","1","bf14_nc.jpg","-1.5184305633280805736","-762.1621621621621898157","97.2972972972973053629"
"121516","10:27:57","19","19","compatibletest","3","attributeB","38","23","1","795","4","Nasty","-1.5278047498872724397","-763.0263157894736423259","97.3684210526315752077"
"121516","10:27:57","19","19","compatibletest","3","attributeA","39","18","1","651","5","Glorious","-1.5329528683332795946","-760.1538461538461888267","97.4358974358974307961"
"121516","10:27:57","19","19","compatibletest","3","targetAleft","40","18","1","608","2","bf23_nc.jpg","-1.5362583625057477654","-756.3500000000000227374","97.5"
"121516","10:27:57","19","19","compatibletest","3","attributeA","41","18","1","580","1","Joy","-1.5383118384891998343","-752.0487804878048336832","97.5609756097560989474"
"121516","10:27:57","19","19","compatibletest","3","attributeB","42","23","1","640","5","Terrible","-1.5429183602651181939","-749.3809523809524080207","97.619047619047620401"
"121516","10:27:57","19","19","compatibletest","3","attributeA","43","18","1","601","6","Pleasure","-1.5459475481875801783","-745.930232558139550747","97.6744186046511515542"
"121516","10:27:57","19","19","compatibletest","3","attributeA","44","18","1","1056","5","Glorious","-1.5515554337992787381","-752.9772727272727479431","97.7272727272727337322"
"121516","10:27:57","19","19","compatibletest","3","targetAleft","45","18","1","586","6","bm56_nc.jpg","-1.5536267444795368586","-749.2666666666666515084","97.7777777777777714618"
"121516","10:27:57","19","19","compatibletest","3","targetAleft","46","18","1","406","3","bf56_nc.jpg","-1.5459216771073793772","-741.804347826086996065","97.8260869565217348054"
"121516","10:27:57","19","19","compatibletest","3","attributeB","47","23","1","677","8","Hurt","-1.5513153847089211634","-740.4255319148936678175","97.8723404255319167078"
"121516","10:27:57","19","19","compatibletest","3","attributeA","48","18","1","717","2","Happy","-1.5575014616655566968","-739.9375","97.9166666666666571928"
"121516","10:27:57","19","19","compatibletest","3","attributeB","49","23","1","608","1","Evil","-1.5605364685349216725","-737.244897959183617786","97.9591836734693828248"
"121516","10:27:57","19","19","compatibletest","3","targetAleft","50","18","1","564","5","bm23_nc.jpg","-1.5619103622850818436","-733.7799999999999727152","98"
"121516","10:27:57","19","19","compatibletest","3","attributeB","51","23","1","642","7","Failure","-1.5660093106556420839","-731.9803921568627629313","98.0392156862745025592"
"121516","10:27:57","19","19","compatibletest","3","attributeA","52","18","1","870","8","Wonderful","-1.5727638681926654485","-734.63461538461535838","98.0769230769230659917"
"121516","10:27:57","19","19","compatibletest","3","attributeB","53","23","1","881","6","Horrible","-1.5792592267646112791","-737.396226415094361073","98.1132075471698072988"
"121516","10:27:57","19","19","compatibletest","3","attributeA","54","18","1","636","7","Peace","-1.5827431094287269797","-735.5185185185184764123","98.1481481481481523588"
"121516","10:27:57","19","19","compatibletest","3","attributeB","55","23","1","717","5","Terrible","-1.5879654718405034064","-735.1818181818181301423","98.1818181818181869858"
"121516","10:27:57","19","19","compatibletest","3","attributeA","56","18","1","702","3","Laughter","-1.5927996536689690288","-734.5892857142856655628","98.2142857142857081953"
"121516","10:27:57","19","19","compatibletest","3","attributeB","57","23","1","681","3","Awful","-1.597118926342041334","-733.6491228070175338871","98.2456140350877120682"
"121516","10:27:57","19","19","compatibletest","3","attributeB","58","23","1","830","4","Nasty","-1.6028651398542030915","-735.310344827586163774","98.2758620689655089109"
"121516","10:27:57","19","19","compatibletest","3","targetAleft","59","18","1","478","4","bm14_nc.jpg","-1.6002240275880390552","-730.9491525423728717215","98.3050847457627128279"
"121516","10:27:57","19","19","compatibletest","3","attributeB","60","23","1","728","8","Hurt","-1.6050882707716229714","-730.8999999999999772626","98.3333333333333285964"
"121516","10:27:57","19","19","compatibletest","3","attributeB","61","23","1","757","7","Failure","-1.6101481481103201432","-731.3278688524590052111","98.3606557377049171009"
"121516","10:27:57","19","19","compatibletest","3","targetAleft","62","18","1","573","3","bf56_nc.jpg","-1.6113082225497099564","-728.7741935483870747703","98.387096774193551596"
"121516","10:27:57","19","19","compatibletest","3","attributeA","63","18","1","761","4","Love","-1.6162038751866276698","-729.2857142857143344372","98.4126984126984041268"
"121516","10:27:57","19","19","compatibletest","3","attributeB","64","23","1","801","2","Agony","-1.6211797298222945241","-730.40625","98.4375"
"121516","10:27:57","19","19","compatibletest","3","targetAleft","65","18","1","525","6","bm56_nc.jpg","-1.6205981253736447822","-727.2461538461539021228","98.4615384615384670042"
"121516","10:27:57","19","19","compatibletest","3","attributeB","66","23","1","699","1","Evil","-1.6245316485285248298","-726.8181818181818698577","98.4848484848484844179"
"121516","10:27:57","19","19","compatibletest","3","attributeA","67","18","1","603","1","Joy","-1.6264410161645272979","-724.9701492537313924913","98.507462686567166088"
"121516","10:27:57","19","19","compatibletest","3","attributeB","68","23","1","625","3","Awful","-1.6288821282185201866","-723.5","98.5294117647058840248"
"121516","10:27:57","19","19","compatibletest","3","attributeB","69","23","1","675","2","Agony","-1.6322739195477455887","-722.7971014492753738523","98.5507246376811707478"
"121516","10:27:57","19","19","compatibletest","3","attributeB","70","23","1","461","1","Evil","-1.6293945752545828665","-719.0571428571428214127","98.5714285714285836093"
"121516","10:27:57","19","19","incompatibletest","5","attributeA","1","18","1","942","2","Happy","0.812400140835988438","222.9428571428571785873","98.5915492957746550928"
"121516","10:27:57","19","19","incompatibletest","5","attributeB","2","23","1","833","6","Horrible","0.6407900798847911972","168.4428571428571785873","98.6111111111111142691"
"121516","10:27:57","19","19","incompatibletest","5","attributeB","3","23","1","770","5","Terrible","0.5054701628643067934","129.2761904761905498162","98.6301369863013661643"
"121516","10:27:57","19","19","incompatibletest","5","targetAright","4","23","1","439","4","bm14_nc.jpg","0.107994925335905198","26.9428571428571785873","98.648648648648645576"
"121516","10:27:57","19","19","incompatibletest","5","attributeB","5","23","1","796","4","Nasty","0.1488568869836915665","36.9428571428571785873","98.6666666666666714036"
"121516","10:27:57","19","19","incompatibletest","5","targetAright","6","23","1","390","1","bf14_nc.jpg","-0.0965656516693926131","-24.0571428571428214127","98.6842105263157804984"
"121516","10:27:57","19","19","incompatibletest","5","targetAright","7","23","1","447","5","bm23_nc.jpg","-0.2375762577977512668","-59.4857142857142662251","98.7012987012986968693"
"121516","10:27:57","19","19","incompatibletest","5","attributeA","8","18","1","579","4","Love","-0.2786899544292865127","-69.5571428571428214127","98.7179487179487296089"
"121516","10:27:57","19","19","incompatibletest","5","attributeA","9","18","1","540","8","Wonderful","-0.3279125818981172835","-81.7238095238094501838","98.7341772151898737775"
"121516","10:27:57","19","19","incompatibletest","5","attributeA","10","18","1","506","7","Peace","-0.3805527014105988259","-94.857142857142775938","98.75"
"121516","10:27:57","19","19","incompatibletest","5","targetAright","11","23","1","688","2","bf23_nc.jpg","-0.3601127339070553379","-89.0571428571428214127","98.7654320987654301689"
"121516","10:27:57","19","19","incompatibletest","5","attributeA","12","18","1","604","6","Pleasure","-0.3707704073199908357","-91.2238095238094501838","98.7804878048780494737"
"121516","10:27:57","19","19","incompatibletest","5","targetAright","13","23","1","499","4","bm14_nc.jpg","-0.4111978835385818321","-101.1340659340659158261","98.7951807228915583892"
"121516","10:27:57","19","19","incompatibletest","5","attributeA","14","18","1","630","3","Laughter","-0.4102084325154495836","-100.2714285714284869755","98.8095238095238102005"
"121516","10:27:57","19","19","incompatibletest","5","attributeB","15","23","1","601","8","Hurt","-0.4172202120301924944","-101.4571428571427986753","98.823529411764710062"
"121516","10:27:57","19","19","incompatibletest","5","attributeA","16","18","1","515","5","Glorious","-0.4443791619127483994","-107.8696428571428214127","98.8372093023255757771"
"121516","10:27:57","19","19","incompatibletest","5","attributeA","17","18","1","518","4","Love","-0.4679534244528357756","-113.3512605042016048174","98.8505747126436773442"
"121516","10:27:57","19","19","incompatibletest","5","attributeA","18","18","1","639","1","Joy","-0.4632103980385676167","-111.501587301587278489","98.8636363636363597607"
"121516","10:27:57","19","19","incompatibletest","5","attributeB","19","23","0","1148","7","Failure","-0.3417508309510431941","-83.0571428571428214127","97.7528089887640447841"
"121516","10:27:57","19","19","incompatibletest","5","attributeA","20","18","1","625","2","Happy","-0.3458332030575929084","-83.607142857142775938","97.7777777777777714618"
"121516","10:27:57","19","19","incompatibletest","5","attributeB","21","23","1","666","1","Evil","-0.3418130973871873479","-82.1523809523808949962","97.8021978021977957951"
"121516","10:27:57","19","19","incompatibletest","5","targetAright","22","23","1","1363","1","bf14_nc.jpg","-0.1980497360991729516","-49.1480519480519433273","97.8260869565217348054"
"121516","10:27:57","19","19","incompatibletest","5","targetAright","23","23","1","480","5","bm23_nc.jpg","-0.2314454024178894953","-57.4049689440993233802","97.8494623655913926541"
"121516","10:27:57","19","19","incompatibletest","5","attributeA","24","18","1","564","7","Peace","-0.248725287163872294","-61.4738095238094501838","97.8723404255319167078"
"121516","10:27:57","19","19","incompatibletest","5","attributeB","25","23","1","850","2","Agony","-0.2184546838161853799","-53.7771428571428486975","97.894736842105274377"
"121516","10:27:57","19","19","incompatibletest","5","attributeA","26","18","1","614","5","Glorious","-0.2274996647984843523","-55.7494505494505574461","97.9166666666666571928"
"121516","10:27:57","19","19","incompatibletest","5","attributeB","27","23","1","1148","4","Nasty","-0.1525823488408690753","-37.7978835978835832066","97.9381443298969003308"
"121516","10:27:57","19","19","incompatibletest","5","attributeB","28","23","1","701","7","Failure","-0.1505213195769236068","-37.0928571428571558499","97.9591836734693828248"
"121516","10:27:57","19","19","incompatibletest","5","attributeA","29","18","1","565","3","Laughter","-0.1674428085456252657","-41.126108374384216404","97.9797979797979792238"
"121516","10:27:57","19","19","incompatibletest","5","attributeB","30","23","1","644","8","Hurt","-0.172866408898371321","-42.2571428571428668874","98"
"121516","10:27:57","19","19","incompatibletest","5","targetAright","31","23","1","665","6","bm56_nc.jpg","-0.1752815772290830243","-42.6377880184331843338","98.0198019801980251486"
"121516","10:27:57","19","19","incompatibletest","5","targetAright","32","23","1","538","3","bf56_nc.jpg","-0.193554743037101018","-46.9633928571428214127","98.0392156862745025592"
"121516","10:27:57","19","19","incompatibletest","5","targetAright","33","23","1","448","2","bf23_nc.jpg","-0.2213948053735985133","-53.7541125541125666132","98.0582524271844704344"
"121516","10:27:57","19","19","incompatibletest","5","attributeA","34","18","1","532","8","Wonderful","-0.2381243005257732137","-57.6747899159663575119","98.0769230769230659917"
"121516","10:27:57","19","19","incompatibletest","5","attributeA","35","18","1","649","6","Pleasure","-0.2407042679837599342","-58.0285714285713538629","98.0952380952380877943"
"121516","10:27:57","19","19","incompatibletest","5","attributeA","36","18","1","510","4","Love","-0.2585670545058524339","-62.2238095238094501838","98.1132075471698072988"
"121516","10:27:57","19","19","incompatibletest","5","attributeA","37","18","1","535","8","Wonderful","-0.2729456717920544229","-65.5166023166023023805","98.1308411214953224544"
"121516","10:27:57","19","19","incompatibletest","5","targetAright","38","23","1","630","5","bm23_nc.jpg","-0.276736681583716726","-66.1360902255638620773","98.1481481481481523588"
"121516","10:27:57","19","19","incompatibletest","5","attributeA","39","18","1","662","5","Glorious","-0.2770405845714339343","-65.903296703296632586","98.1651376146788976484"
"121516","10:27:57","19","19","incompatibletest","5","attributeB","40","23","1","616","3","Awful","-0.2821085470229419134","-66.8321428571427986753","98.1818181818181869858"
"121516","10:27:57","19","19","incompatibletest","5","attributeB","41","23","1","1293","6","Horrible","-0.2111616711821727166","-51.2034843205574361491","98.1981981981981988383"
"121516","10:27:57","19","19","incompatibletest","5","targetAright","42","23","0","1017","6","bm56_nc.jpg","-0.1763535531823807179","-42.8904761904761926417","97.3214285714285693984"
"121516","10:27:57","19","19","incompatibletest","5","attributeB","43","23","1","609","5","Terrible","-0.1834757840736259693","-44.4524916943521475332","97.3451327433628250674"
"121516","10:27:57","19","19","incompatibletest","5","attributeB","44","23","1","1229","8","Hurt","-0.1293922310996999947","-31.8525974025973255266","97.3684210526315752077"
"121516","10:27:57","19","19","incompatibletest","5","attributeB","45","23","1","958","2","Agony","-0.1049366763454125523","-25.834920634920649718","97.3913043478260931352"
"121516","10:27:57","19","19","incompatibletest","5","attributeA","46","18","1","462","2","Happy","-0.1253525889691543826","-30.8614906832298174777","97.4137931034482704717"
"121516","10:27:57","19","19","incompatibletest","5","attributeA","47","18","1","536","3","Laughter","-0.1388172811956004116","-34.0996960486321540884","97.4358974358974307961"
"121516","10:27:57","19","19","incompatibletest","5","attributeB","48","23","1","670","3","Awful","-0.1406769076915670158","-34.4113095238094501838","97.4576271186440692418"
"121516","10:27:57","19","19","incompatibletest","5","targetAright","49","23","1","560","4","bm14_nc.jpg","-0.1514942946210460772","-36.9551020408163140019","97.4789915966386502078"
"121516","10:27:57","19","19","incompatibletest","5","targetAright","50","23","1","365","3","bf56_nc.jpg","-0.1768120032486094895","-43.2971428571428305077","97.5"
"121516","10:27:57","19","19","incompatibletest","5","attributeA","51","18","1","689","1","Joy","-0.1764892176377984012","-43.037535014005584344","97.5206611570247901"
"121516","10:27:57","19","19","incompatibletest","5","attributeA","52","18","1","503","7","Peace","-0.1904062269452211076","-46.3648351648350853793","97.5409836065573756514"
"121516","10:27:57","19","19","incompatibletest","5","attributeA","53","18","1","527","6","Pleasure","-0.2021127454654511602","-49.1137466307277463784","97.5609756097560989474"
"121516","10:27:57","19","19","incompatibletest","5","targetAright","54","23","1","742","2","bf23_nc.jpg","-0.1974025174010466399","-47.7793650793649931074","97.5806451612903202886"
"121516","10:27:57","19","19","incompatibletest","5","attributeA","55","18","1","542","8","Wonderful","-0.2076060425366547391","-50.1298701298701416817","97.5999999999999943157"
"121516","10:27:57","19","19","incompatibletest","5","targetAright","56","23","1","1064","1","bf14_nc.jpg","-0.1774795677564771634","-43.0749999999999317879","97.619047619047620401"
"121516","10:27:57","19","19","incompatibletest","5","targetAright","57","23","1","529","6","bm56_nc.jpg","-0.1884848796604576548","-45.6536340852129569612","97.6377952755905482718"
"121516","10:27:57","19","19","incompatibletest","5","attributeA","58","18","1","653","7","Peace","-0.1906641806213409118","-46.0054187192117751692","97.65625"
"121516","10:27:57","19","19","incompatibletest","5","attributeA","59","18","1","554","3","Laughter","-0.1995313609828941459","-48.0232445520580313314","97.6744186046511515542"
"121516","10:27:57","19","19","incompatibletest","5","attributeB","60","23","1","645","1","Evil","-0.2020836162858259399","-48.4571428571427986753","97.6923076923076934008"
"121516","10:27:57","19","19","incompatibletest","5","attributeA","61","18","1","681","4","Love","-0.2021495236029908216","-48.2866510538641477979","97.709923664122129594"
"121516","10:27:57","19","19","incompatibletest","5","attributeA","62","18","1","534","6","Pleasure","-0.2118227222070850346","-50.4926267281105083384","97.7272727272727337322"
"121516","10:27:57","19","19","incompatibletest","5","attributeB","63","23","1","581","7","Failure","-0.2182934510140740747","-51.8825396825396865097","97.7443609022556358923"
"121516","10:27:57","19","19","incompatibletest","5","targetAright","64","23","1","710","2","bf23_nc.jpg","-0.2162902846374650523","-51.2133928571428214127","97.7611940298507562375"
"121516","10:27:57","19","19","incompatibletest","5","attributeB","65","23","1","935","4","Nasty","-0.198915812688196747","-47.1032967032966780607","97.7777777777777714618"
"121516","10:27:57","19","19","incompatibletest","5","targetAright","66","23","1","940","5","bm23_nc.jpg","-0.1817315214278892588","-43.0419913419913200414","97.7941176470588260372"
"121516","10:27:57","19","19","incompatibletest","5","attributeA","67","18","1","939","5","Glorious","-0.1651430871836929715","-39.1168443496801501169","97.8102189781021991166"
"121516","10:27:57","19","19","incompatibletest","5","attributeA","68","18","1","565","1","Joy","-0.1727071218789857365","-40.8071428571428214127","97.8260869565217348054"
"121516","10:27:57","19","19","incompatibletest","5","targetAright","69","23","1","627","1","bf14_nc.jpg","-0.176432120053113678","-41.5498964803311992","97.8417266187050387316"
"121516","10:27:57","19","19","incompatibletest","5","attributeB","70","23","1","1188","6","Horrible","-0.143773240922536516","-34.2571428571428668874","97.8571428571428469922"
"121416","22:26:49","22","22","practice_incompatibletest","1","attributeA","2","18","1","720","2","Happy","","0","0"
"121416","22:26:49","22","22","practice_incompatibletest","1","attributeB","3","23","1","543","3","Awful","","0","0"
"121416","22:26:49","22","22","practice_incompatibletest","1","attributeA","4","18","1","610","8","Wonderful","","0","0"
"121416","22:26:49","22","22","practice_incompatibletest","1","attributeB","5","23","1","431","6","Horrible","","0","0"
"121416","22:26:49","22","22","practice_incompatibletest","1","attributeA","6","18","1","522","3","Laughter","","0","0"
"121416","22:26:49","22","22","practice_incompatibletest","1","attributeB","7","23","1","431","4","Nasty","","0","0"
"121416","22:26:49","22","22","practice_incompatibletest","1","attributeA","8","18","1","507","1","Joy","","0","0"
"121416","22:26:49","22","22","practice_incompatibletest","1","attributeB","9","23","1","421","8","Hurt","","0","0"
"121416","22:26:49","22","22","practice_incompatibletest","1","attributeB","10","23","1","584","1","Evil","","0","0"
"121416","22:26:49","22","22","practice_incompatibletest","1","attributeA","11","18","1","596","7","Peace","","0","0"
"121416","22:26:49","22","22","incompatibletest","3","attributeB","1","23","1","654","5","Terrible","","654","100"
"121416","22:26:49","22","22","incompatibletest","3","attributeA","2","18","1","529","6","Pleasure","1.3836545958793258215","591.5","100"
"121416","22:26:49","22","22","incompatibletest","3","attributeA","3","18","1","502","4","Love","1.5894130334511640257","561.6666666666666287711","100"
"121416","22:26:49","22","22","incompatibletest","3","attributeB","4","23","1","628","7","Failure","1.6909489600255087627","578.25","100"
"121416","22:26:49","22","22","incompatibletest","3","attributeA","5","18","1","915","5","Glorious","1.6291238133660614906","645.6000000000000227374","100"
"121416","22:26:49","22","22","incompatibletest","3","attributeB","6","23","1","510","2","Agony","1.6594881233383280694","623","100"
"121416","22:26:49","22","22","incompatibletest","3","attributeA","7","18","1","572","5","Glorious","1.6988237713110203586","615.7142857142856655628","100"
"121416","22:26:49","22","22","incompatibletest","3","targetAright","8","23","1","578","4","bm14_nc.jpg","1.73053202114758653","611","100"
"121416","22:26:49","22","22","incompatibletest","3","targetAright","9","23","1","515","5","bm23_nc.jpg","1.7466554513941066062","600.3333333333333712289","100"
"121416","22:26:49","22","22","incompatibletest","3","attributeB","10","23","1","987","1","Evil","1.6881355434087959022","639","100"
"121416","22:26:49","22","22","incompatibletest","3","targetAright","11","23","1","597","3","bf56_nc.jpg","1.7099576277239740829","635.1818181818181301423","100"
"121416","22:26:49","22","22","incompatibletest","3","attributeA","12","18","1","517","6","Pleasure","1.7186575738297882321","625.3333333333333712289","100"
"121416","22:26:49","22","22","incompatibletest","3","attributeB","13","23","1","493","8","Hurt","1.7232597308346986331","615.1538461538461888267","100"
"121416","22:26:49","22","22","incompatibletest","3","attributeB","14","23","1","620","7","Failure","1.7407595815469694145","615.5","100"
"121416","22:26:49","22","22","incompatibletest","3","attributeA","15","18","1","445","1","Joy","1.7361915695456999753","604.1333333333333257542","100"
"121416","22:26:49","22","22","incompatibletest","3","attributeA","16","18","1","751","8","Wonderful","1.745788334419751342","613.3125","100"
"121416","22:26:49","22","22","incompatibletest","3","attributeB","17","23","1","432","2","Agony","1.7391761200429094458","602.6470588235293917023","100"
"121416","22:26:49","22","22","incompatibletest","3","attributeA","18","18","1","541","2","Happy","1.7483289129024572883","599.2222222222221716947","100"
"121416","22:26:49","22","22","incompatibletest","3","attributeA","19","18","1","575","7","Peace","1.7589752083445930886","597.9473684210526016614","100"
"121416","22:26:49","22","22","incompatibletest","3","attributeA","20","18","1","486","3","Laughter","1.7617029455597663645","592.3500000000000227374","100"
"121416","22:26:49","22","22","incompatibletest","3","attributeB","21","23","1","577","5","Terrible","1.7711820586824449375","591.6190476190475919793","100"
"121416","22:26:49","22","22","incompatibletest","3","targetAright","22","23","1","429","1","bf14_nc.jpg","1.766721398582604019","584.2272727272727479431","100"
"121416","22:26:49","22","22","incompatibletest","3","attributeB","23","23","1","571","3","Awful","1.7752380938747416295","583.6521739130434980325","100"
"121416","22:26:49","22","22","incompatibletest","3","targetAright","24","23","1","556","2","bf23_nc.jpg","1.7826150081950309367","582.5","100"
"121416","22:26:49","22","22","incompatibletest","3","targetAright","25","23","1","558","6","bm56_nc.jpg","1.7895963601758013706","581.5199999999999818101","100"
"121416","22:26:49","22","22","incompatibletest","3","attributeB","26","23","1","703","6","Horrible","1.7942794498195047126","586.1923076923077360334","100"
"121416","22:26:49","22","22","incompatibletest","3","attributeA","27","18","1","599","4","Love","1.8012292423970082123","586.6666666666666287711","100"
"121416","22:26:49","22","22","incompatibletest","3","attributeA","28","18","1","531","6","Pleasure","1.8056687157043593839","584.6785714285714448124","100"
"121416","22:26:49","22","22","incompatibletest","3","attributeA","29","18","1","543","7","Peace","1.8104664766125446729","583.2413793103448824695","100"
"121416","22:26:49","22","22","incompatibletest","3","targetAright","30","23","1","628","6","bm56_nc.jpg","1.8162241638895781914","584.7333333333333484916","100"
"121416","22:26:49","22","22","incompatibletest","3","attributeA","31","18","1","519","8","Wonderful","1.8193692863278945193","582.6129032258064626149","100"
"121416","22:26:49","22","22","incompatibletest","3","attributeA","32","18","1","611","5","Glorious","1.824617928650961618","583.5","100"
"121416","22:26:49","22","22","incompatibletest","3","targetAright","33","23","1","462","3","bf56_nc.jpg","1.8237720125232388391","579.8181818181818698577","100"
"121416","22:26:49","22","22","incompatibletest","3","attributeA","34","18","1","572","1","Joy","1.8283279551510016603","579.5882352941176804961","100"
"121416","22:26:49","22","22","incompatibletest","3","attributeB","35","23","1","593","4","Nasty","1.8328787721027253177","579.9714285714285324502","100"
"121416","22:26:49","22","22","incompatibletest","3","attributeA","36","18","1","664","4","Love","1.8362650654812191497","582.3055555555555429237","100"
"121416","22:26:49","22","22","incompatibletest","3","attributeB","37","23","1","643","8","Hurt","1.8400434968107282074","583.9459459459459367281","100"
"121416","22:26:49","22","22","incompatibletest","3","targetAright","38","23","1","766","5","bm23_nc.jpg","1.837914043509855988","588.7368421052631219936","100"
"121416","22:26:49","22","22","incompatibletest","3","targetAright","39","23","1","487","4","bm14_nc.jpg","1.8382177971833109087","586.1282051282050815644","100"
"121416","22:26:49","22","22","incompatibletest","3","attributeB","40","23","1","615","2","Agony","1.8419927910867373022","586.8500000000000227374","100"
"121416","22:26:49","22","22","incompatibletest","3","attributeA","41","18","1","512","2","Happy","1.8435116339644099792","585.0243902439024168416","100"
"121416","22:26:49","22","22","incompatibletest","3","attributeB","42","23","1","546","5","Terrible","1.8461953276473963559","584.0952380952380735835","100"
"121416","22:26:49","22","22","incompatibletest","3","attributeB","43","23","1","511","3","Awful","1.8476252034243709765","582.3953488372093261205","100"
"121416","22:26:49","22","22","incompatibletest","3","attributeA","44","18","1","529","3","Laughter","1.8496963843788831738","581.1818181818181301423","100"
"121416","22:26:49","22","22","incompatibletest","3","attributeA","45","18","1","495","3","Laughter","1.8504340690443124018","579.2666666666666515084","100"
"121416","22:26:49","22","22","incompatibletest","3","targetAright","46","23","1","463","1","bf14_nc.jpg","1.8496063915472249484","576.7391304347826235244","100"
"121416","22:26:49","22","22","incompatibletest","3","attributeB","47","23","1","624","1","Evil","1.8524680847418502072","577.7446808510637765721","100"
"121416","22:26:49","22","22","incompatibletest","3","attributeA","48","18","1","552","8","Wonderful","1.8549334008892019998","577.2083333333333712289","100"
"121416","22:26:49","22","22","incompatibletest","3","targetAright","49","23","1","476","2","bf23_nc.jpg","1.8548241124334019503","575.1428571428571103752","100"
"121416","22:26:49","22","22","incompatibletest","3","attributeA","50","18","1","487","7","Peace","1.8552817739446374468","573.3799999999999954525","100"
"121416","22:26:49","22","22","incompatibletest","3","targetAright","51","23","1","491","5","bm23_nc.jpg","1.8559430978789119848","571.7647058823529278015","100"
"121416","22:26:49","22","22","incompatibletest","3","targetAright","52","23","1","496","6","bm56_nc.jpg","1.8568194400235336072","570.3076923076922639666","100"
"121416","22:26:49","22","22","incompatibletest","3","attributeB","53","23","1","580","4","Nasty","1.8593427017093853149","570.4905660377359026825","100"
"121416","22:26:49","22","22","incompatibletest","3","targetAright","54","23","1","473","4","bm14_nc.jpg","1.8592832299594335144","568.6851851851852188702","100"
"121416","22:26:49","22","22","incompatibletest","3","attributeA","55","18","1","551","4","Love","1.8614443524582033884","568.3636363636363739715","100"
"121416","22:26:49","22","22","incompatibletest","3","attributeA","56","18","1","858","6","Pleasure","1.8510405305369015405","573.5357142857143344372","100"
"121416","22:26:49","22","22","incompatibletest","3","targetAright","57","23","1","462","2","bf23_nc.jpg","1.8504955201734882841","571.5789473684210406645","100"
"121416","22:26:49","22","22","incompatibletest","3","attributeA","58","18","1","546","5","Glorious","1.8525448202145318177","571.1379310344827899826","100"
"121416","22:26:49","22","22","incompatibletest","3","targetAright","59","23","1","523","3","bf56_nc.jpg","1.8541000822522208935","570.3220338983051078685","100"
"121416","22:26:49","22","22","incompatibletest","3","targetAright","60","23","1","512","1","bf14_nc.jpg","1.8553612113771960068","569.3500000000000227374","100"
"121416","22:26:49","22","22","incompatibletest","3","attributeA","61","18","1","728","2","Happy","1.8545224372311897021","571.950819672131160587","100"
"121416","22:26:49","22","22","incompatibletest","3","attributeA","62","18","1","527","1","Joy","1.8560452003067948734","571.2258064516129252297","100"
"121416","22:26:49","22","22","incompatibletest","3","targetAright","63","23","1","600","5","bm23_nc.jpg","1.8581792955183664695","571.682539682539641035","100"
"121416","22:26:49","22","22","incompatibletest","3","attributeB","64","23","1","742","7","Failure","1.8568289371842052748","574.34375","100"
"121416","22:26:49","22","22","incompatibletest","3","attributeA","65","18","1","646","8","Wonderful","1.8585052251546381186","575.4461538461538339106","100"
"121416","22:26:49","22","22","incompatibletest","3","targetAright","66","23","1","438","1","bf14_nc.jpg","1.8568451384827568962","573.3636363636363739715","100"
"121416","22:26:49","22","22","incompatibletest","3","attributeB","67","23","1","531","6","Horrible","1.8582750416224111945","572.7313432835820776745","100"
"121416","22:26:49","22","22","incompatibletest","3","attributeA","68","18","1","464","1","Joy","1.8578264006723741453","571.1323529411764639008","100"
"121416","22:26:49","22","22","incompatibletest","3","attributeB","69","23","1","561","8","Hurt","1.859629022092773587","570.9855072463767555746","100"
"121416","22:26:49","22","22","incompatibletest","3","attributeA","70","18","1","496","4","Love","1.8602361264009967812","569.9142857142857110375","100"
"121416","22:26:49","22","22","compatibletest","5","attributeB","1","23","1","1204","2","Agony","-1.8840317785043048104","-634.0857142857142889625","100"
"121416","22:26:49","22","22","compatibletest","5","attributeB","2","23","1","548","7","Failure","-1.5713822190310138271","-306.0857142857142889625","100"
"121416","22:26:49","22","22","compatibletest","5","attributeB","3","23","1","656","1","Evil","-1.3866898460743710686","-232.7523809523809177335","100"
"121416","22:26:49","22","22","compatibletest","5","attributeA","4","18","1","535","3","Laughter","-1.1193607141687402784","-165.8357142857142889625","100"
"121416","22:26:49","22","22","compatibletest","5","targetAleft","5","18","1","543","2","bf23_nc.jpg","-0.9166054379118179218","-127.2857142857143344372","100"
"121416","22:26:49","22","22","compatibletest","5","attributeA","6","18","1","505","2","Happy","-0.7162581954328062217","-95.2523809523809177335","100"
"121416","22:26:49","22","22","compatibletest","5","attributeB","7","23","1","570","3","Awful","-0.6267354041022294986","-81.6571428571428441501","100"
"121416","22:26:49","22","22","compatibletest","5","attributeA","8","18","1","568","7","Peace","-0.5551906317543566782","-71.2107142857142889625","100"
"121416","22:26:49","22","22","compatibletest","5","attributeA","9","18","1","473","6","Pleasure","-0.4153692181952717277","-52.5301587301587460388","100"
"121416","22:26:49","22","22","compatibletest","5","attributeB","10","23","1","622","6","Horrible","-0.4175698324244394577","-52.4857142857142662251","100"
"121416","22:26:49","22","22","compatibletest","5","attributeA","11","18","1","547","5","Glorious","-0.3664677110524214854","-45.6311688311687930764","100"
"121416","22:26:49","22","22","compatibletest","5","targetAleft","12","18","1","468","3","bf56_nc.jpg","-0.2693278710692267319","-33.3357142857142889625","100"
"121416","22:26:49","22","22","compatibletest","5","attributeB","13","23","1","782","5","Terrible","-0.3748787177182182351","-47.0857142857142889625","100"
"121416","22:26:49","22","22","compatibletest","5","attributeB","14","23","1","572","4","Nasty","-0.3519154427923792405","-43.8714285714286233997","100"
"121416","22:26:49","22","22","compatibletest","5","attributeB","15","23","0","987","3","Awful","-0.5179678492972439319","-68.7523809523809177335","98.823529411764710062"
"121416","22:26:49","22","22","compatibletest","5","targetAleft","16","18","1","604","4","bm14_nc.jpg","-0.5053043852833176697","-66.5857142857142889625","98.8372093023255757771"
"121416","22:26:49","22","22","compatibletest","5","attributeB","17","23","1","571","8","Hurt","-0.4797832854867711272","-62.7327731092436806648","98.8505747126436773442"
"121416","22:26:49","22","22","compatibletest","5","attributeB","18","23","1","577","2","Agony","-0.4594739519388822968","-59.6412698412698318862","98.8636363636363597607"
"121416","22:26:49","22","22","compatibletest","5","targetAleft","19","18","1","736","6","bm56_nc.jpg","-0.5008903746995475581","-65.2436090225563702916","98.8764044943820152866"
"121416","22:26:49","22","22","compatibletest","5","attributeB","20","23","1","601","5","Terrible","-0.4909987876203716906","-63.5357142857143344372","98.8888888888888857309"
"121416","22:26:49","22","22","compatibletest","5","attributeA","21","18","1","507","7","Peace","-0.4470074414777659433","-57.5142857142857337749","98.901098901098905003"
"121416","22:26:49","22","22","compatibletest","5","attributeA","22","18","1","574","4","Love","-0.43090031980181559","-55.0857142857142889625","98.9130434782608602973"
"121416","22:26:49","22","22","compatibletest","5","attributeB","23","23","1","592","1","Evil","-0.422235993815156252","-53.6509316770186615031","98.924731182795696327"
"121416","22:26:49","22","22","compatibletest","5","attributeB","24","23","1","499","4","Nasty","-0.3830518169850025689","-48.4607142857142889625","98.9361702127659583539"
"121416","22:26:49","22","22","compatibletest","5","attributeB","25","23","1","531","6","Horrible","-0.357312456923172761","-44.965714285714284415","98.9473684210526300831"
"121416","22:26:49","22","22","compatibletest","5","attributeA","26","18","1","513","5","Glorious","-0.3276417868364671637","-41.0472527472527417558","98.9583333333333428072"
"121416","22:26:49","22","22","compatibletest","5","targetAleft","27","18","1","418","5","bm23_nc.jpg","-0.2699170291904574026","-33.9005291005290700923","98.9690721649484572708"
"121416","22:26:49","22","22","compatibletest","5","targetAleft","28","18","1","525","2","bf23_nc.jpg","-0.248643772124181317","-31.0857142857142889625","98.9795918367346985178"
"121416","22:26:49","22","22","compatibletest","5","targetAleft","29","18","1","473","6","bm56_nc.jpg","-0.213749981316781662","-26.6719211822660327016","98.9898989898989896119"
"121416","22:26:49","22","22","compatibletest","5","targetAleft","30","18","1","504","1","bf14_nc.jpg","-0.1896940170802600689","-23.5857142857142889625","99"
"121416","22:26:49","22","22","compatibletest","5","attributeB","31","23","1","597","7","Failure","-0.1915444086640372412","-23.6986175115207515773","99.0099009900990125743"
"121416","22:26:49","22","22","compatibletest","5","attributeB","32","23","1","483","3","Awful","-0.1639875824106540037","-20.2419642857142889625","99.0196078431372654904"
"121416","22:26:49","22","22","compatibletest","5","attributeA","33","18","1","554","6","Pleasure","-0.1558642478168550671","-19.1463203463202944477","99.0291262135922352172"
"121416","22:26:49","22","22","compatibletest","5","attributeA","34","18","1","610","3","Laughter","-0.1616046537844734454","-19.7621848739495362679","99.0384615384615472067"
"121416","22:26:49","22","22","compatibletest","5","attributeB","35","23","1","505","1","Evil","-0.1422902398549473202","-17.3428571428571558499","99.0476190476190510026"
"121416","22:26:49","22","22","compatibletest","5","targetAleft","36","18","1","492","3","bf56_nc.jpg","-0.1208991554577956706","-14.6968253968253748099","99.0566037735849107548"
"121416","22:26:49","22","22","compatibletest","5","attributeA","37","18","1","628","1","Joy","-0.1310459139214876501","-15.8694980694980358749","99.0654205607476683326"
"121416","22:26:49","22","22","compatibletest","5","targetAleft","38","18","1","496","4","bm14_nc.jpg","-0.1118430090091922513","-13.5067669172932482979","99.0740740740740761794"
"121416","22:26:49","22","22","compatibletest","5","attributeA","39","18","1","665","8","Wonderful","-0.1294269423714988765","-15.5985347985348425937","99.0825688073394559297"
"121416","22:26:49","22","22","compatibletest","5","attributeB","40","23","1","443","7","Failure","-0.0997820187681138226","-12.0357142857143344372","99.0909090909090934929"
"121416","22:26:49","22","22","compatibletest","5","attributeB","41","23","1","533","4","Nasty","-0.0902493796825020178","-10.8418118466898931729","99.0990990990990923137"
"121416","22:26:49","22","22","compatibletest","5","attributeB","42","23","0","1021","8","Hurt","-0.1680999022466968251","-21.3238095238094729211","98.2142857142857081953"
"121416","22:26:49","22","22","compatibletest","5","attributeB","43","23","1","479","2","Agony","-0.1477951812423466404","-18.7136212624584459263","98.2300884955752167116"
"121416","22:26:49","22","22","compatibletest","5","targetAleft","44","18","1","507","1","bf14_nc.jpg","-0.1335611690263675544","-16.8584415584415410194","98.2456140350877120682"
"121416","22:26:49","22","22","compatibletest","5","targetAleft","45","18","1","528","4","bm14_nc.jpg","-0.1236812563094072809","-15.5523809523809859456","98.2608695652173906865"
"121416","22:26:49","22","22","compatibletest","5","targetAleft","46","18","1","514","3","bf56_nc.jpg","-0.1116978115821879725","-13.9987577639751634706","98.2758620689655089109"
"121416","22:26:49","22","22","compatibletest","5","targetAleft","47","18","1","507","2","bf23_nc.jpg","-0.0989430604853130113","-12.3623100303951787282","98.2905982905982824605"
"121416","22:26:49","22","22","compatibletest","5","targetAleft","48","18","1","499","5","bm23_nc.jpg","-0.0852902106552756584","-10.6273809523809177335","98.3050847457627128279"
"121416","22:26:49","22","22","compatibletest","5","attributeB","49","23","1","594","5","Terrible","-0.0878583827523873734","-10.902040816326575623","98.3193277310924287349"
"121416","22:26:49","22","22","compatibletest","5","attributeA","50","18","1","503","2","Happy","-0.0755303336336929365","-9.3457142857142798675","98.3333333333333285964"
"121416","22:26:49","22","22","compatibletest","5","attributeB","51","23","1","518","6","Horrible","-0.0660430968427320603","-8.1445378151260001687","98.3471074380165362072"
"121416","22:26:49","22","22","compatibletest","5","targetAleft","52","18","1","510","6","bm56_nc.jpg","-0.055600167149288289","-6.8357142857142889625","98.3606557377049171009"
"121416","22:26:49","22","22","compatibletest","5","attributeB","53","23","1","513","3","Awful","-0.0459611196348942777","-5.6328840970350029238","98.3739837398373992983"
"121416","22:26:49","22","22","compatibletest","5","attributeA","54","18","1","659","5","Glorious","-0.0586911449158461565","-7.1783068783068983976","98.387096774193551596"
"121416","22:26:49","22","22","compatibletest","5","attributeB","55","23","1","484","4","Nasty","-0.044938374289035056","-5.4857142857142662251","98.4000000000000056843"
"121416","22:26:49","22","22","compatibletest","5","targetAleft","56","18","1","501","3","bf56_nc.jpg","-0.0341453641878024169","-4.1571428571428441501","98.4126984126984041268"
"121416","22:26:49","22","22","compatibletest","5","targetAleft","57","18","1","494","4","bm14_nc.jpg","-0.0226607424157907085","-2.7523809523809177335","98.4251968503937035848"
"121416","22:26:49","22","22","compatibletest","5","attributeA","58","18","1","675","4","Love","-0.0372272778491271744","-4.5167487684728939712","98.4375"
"121416","22:26:49","22","22","compatibletest","5","attributeB","59","23","1","481","2","Agony","-0.0242172563122074989","-2.9331719128329041268","98.4496124031007724398"
"121416","22:26:49","22","22","compatibletest","5","attributeA","60","18","1","512","8","Wonderful","-0.0158913443624245122","-1.9190476190476601914","98.4615384615384670042"
"121416","22:26:49","22","22","compatibletest","5","targetAleft","61","18","1","736","2","bf23_nc.jpg","-0.0380519732971582869","-4.6103044496487655124","98.473282442748086396"
"121416","22:26:49","22","22","compatibletest","5","attributeB","62","23","1","544","8","Hurt","-0.0341119236583238908","-4.1179723502303886562","98.4848484848484844179"
"121416","22:26:49","22","22","compatibletest","5","attributeA","63","18","1","516","3","Laughter","-0.0265608105917440537","-3.1968253968253748099","98.4962406015037572615"
"121416","22:26:49","22","22","compatibletest","5","attributeB","64","23","1","541","5","Terrible","-0.0224714003275236496","-2.6950892857142889625","98.507462686567166088"
"121416","22:26:49","22","22","compatibletest","5","attributeB","65","23","1","585","7","Failure","-0.0241499062312918074","-2.8857142857142434877","98.5185185185185190448"
"121416","22:26:49","22","22","compatibletest","5","attributeA","66","18","1","474","2","Happy","-0.0116368374867733514","-1.388744588744543762","98.5294117647058840248"
"121416","22:26:49","22","22","compatibletest","5","targetAleft","67","18","1","485","1","bf14_nc.jpg","-0.0008448207829209237","-0.1006396588486495602","98.5401459854014660777"
"121416","22:26:49","22","22","compatibletest","5","attributeA","68","18","1","503","7","Peace","0.007446760382874707","0.8848739495798554344","98.5507246376811707478"
"121416","22:26:49","22","22","compatibletest","5","attributeA","69","18","1","560","1","Joy","0.0085789795201726693","1.0157349896480809548","98.5611510791366924877"
"121416","22:26:49","22","22","compatibletest","5","attributeB","70","23","1","525","6","Horrible","0.0139188444916338687","1.6428571428571103752","98.5714285714285836093"
"121416","21:25:31","21","21","practice_compatibletest","1","attributeA","2","18","1","789","2","Happy","","0","0"
"121416","21:25:31","21","21","practice_compatibletest","1","attributeB","3","23","1","610","4","Nasty","","0","0"
"121416","21:25:31","21","21","practice_compatibletest","1","attributeA","4","18","1","570","3","Laughter","","0","0"
"121416","21:25:31","21","21","practice_compatibletest","1","attributeB","5","23","1","659","2","Agony","","0","0"
"121416","21:25:31","21","21","practice_compatibletest","1","attributeB","6","23","1","560","6","Horrible","","0","0"
"121416","21:25:31","21","21","practice_compatibletest","1","attributeB","7","23","1","433","3","Awful","","0","0"
"121416","21:25:31","21","21","practice_compatibletest","1","attributeA","8","18","1","510","1","Joy","","0","0"
"121416","21:25:31","21","21","practice_compatibletest","1","attributeA","9","18","0","541","8","Wonderful","","0","0"
"121416","21:25:31","21","21","practice_compatibletest","1","attributeA","10","18","1","575","7","Peace","","0","0"
"121416","21:25:31","21","21","practice_compatibletest","1","attributeB","11","23","1","646","8","Hurt","","0","0"
"121416","21:25:31","21","21","compatibletest","3","attributeB","1","23","1","901","5","Terrible","","-901","100"
"121416","21:25:31","21","21","compatibletest","3","targetAleft","2","18","1","679","2","bf23_nc.jpg","-1.3614802242836885338","-790","100"
"121416","21:25:31","21","21","compatibletest","3","targetAleft","3","18","1","606","1","bf14_nc.jpg","-1.5440261677733333467","-728.6666666666666287711","100"
"121416","21:25:31","21","21","compatibletest","3","attributeB","4","23","1","453","7","Failure","-1.5557995260318078223","-659.75","100"
"121416","21:25:31","21","21","compatibletest","3","targetAleft","5","18","1","527","5","bm23_nc.jpg","-1.6090011171478328933","-633.2000000000000454747","100"
"121416","21:25:31","21","21","compatibletest","3","attributeB","6","23","1","505","1","Evil","-1.6428257386313593891","-611.8333333333333712289","100"
"121416","21:25:31","21","21","compatibletest","3","attributeB","7","23","1","400","1","Evil","-1.6315455248373931241","-581.5714285714285551876","100"
"121416","21:25:31","21","21","compatibletest","3","attributeB","8","23","1","434","3","Awful","-1.6415691082080994256","-563.125","100"
"121416","21:25:31","21","21","compatibletest","3","attributeA","9","18","1","591","5","Glorious","-1.6773948423137614583","-566.2222222222221716947","100"
"121416","21:25:31","21","21","compatibletest","3","targetAleft","10","18","1","453","4","bm14_nc.jpg","-1.688913633111230661","-554.8999999999999772626","100"
"121416","21:25:31","21","21","compatibletest","3","attributeB","11","23","1","636","2","Agony","-1.7132110385540624264","-562.2727272727272520569","100"
"121416","21:25:31","21","21","compatibletest","3","targetAleft","12","18","1","420","6","bm56_nc.jpg","-1.7134051198552235906","-550.4166666666666287711","100"
"121416","21:25:31","21","21","compatibletest","3","attributeB","13","23","0","905","8","Hurt","-1.6752587889420795797","-577.6923076923077360334","92.3076923076923065992"
"121416","21:25:31","21","21","compatibletest","3","attributeB","14","23","1","516","4","Nasty","-1.6898658572833586966","-573.2857142857143344372","92.8571428571428612031"
"121416","21:25:31","21","21","compatibletest","3","targetAleft","15","18","1","513","3","bf56_nc.jpg","-1.7029073656801261283","-569.2666666666666515084","93.3333333333333285964"
"121416","21:25:31","21","21","compatibletest","3","targetAleft","16","18","0","633","4","bm14_nc.jpg","-1.7193020512225269947","-573.25","87.5"
"121416","21:25:31","21","21","compatibletest","3","attributeB","17","23","1","446","7","Failure","-1.7212214252959079364","-565.7647058823529278015","88.2352941176470579876"
"121416","21:25:31","21","21","compatibletest","3","attributeA","18","18","1","522","4","Love","-1.7321057999479680944","-563.3333333333333712289","88.8888888888888857309"
"121416","21:25:31","21","21","compatibletest","3","attributeB","19","23","1","519","6","Horrible","-1.7419575531616628972","-561","89.4736842105263150415"
"121416","21:25:31","21","21","compatibletest","3","targetAleft","20","18","1","403","6","bm56_nc.jpg","-1.7375267362009831906","-553.1000000000000227374","90"
"121416","21:25:31","21","21","compatibletest","3","attributeA","21","18","1","848","6","Pleasure","-1.722894669004167767","-567.1428571428571103752","90.4761904761904816041"
"121416","21:25:31","21","21","compatibletest","3","attributeA","22","18","1","471","4","Love","-1.7272744141806231077","-562.7727272727272520569","90.9090909090909065071"
"121416","21:25:31","21","21","compatibletest","3","attributeB","23","23","0","585","5","Terrible","-1.7377890771369586265","-563.7391304347826235244","86.9565217391304372541"
"121416","21:25:31","21","21","compatibletest","3","targetAleft","24","18","1","457","2","bf23_nc.jpg","-1.7402724956331654393","-559.2916666666666287711","87.5"
"121416","21:25:31","21","21","compatibletest","3","attributeA","25","18","1","573","8","Wonderful","-1.7494289878361768409","-559.8400000000000318323","88"
"121416","21:25:31","21","21","compatibletest","3","attributeA","26","18","1","465","2","Happy","-1.752417591528591112","-556.1923076923077360334","88.4615384615384670042"
"121416","21:25:31","21","21","compatibletest","3","attributeA","27","18","1","373","3","Laughter","-1.7449921730117532448","-549.4074074074073905649","88.8888888888888857309"
"121416","21:25:31","21","21","compatibletest","3","attributeA","28","18","1","417","1","Joy","-1.7440318477009593146","-544.6785714285714448124","89.2857142857142918047"
"121416","21:25:31","21","21","compatibletest","3","targetAleft","29","18","0","636","1","bf14_nc.jpg","-1.7510318149149766143","-547.8275862068965125218","86.2068965517241423413"
"121416","21:25:31","21","21","compatibletest","3","attributeA","30","18","1","478","5","Glorious","-1.7551386649716163024","-545.5","86.6666666666666714036"
"121416","21:25:31","21","21","compatibletest","3","attributeB","31","23","1","1068","7","Failure","-1.6995240020496904521","-562.3548387096774376914","87.0967741935483843463"
"121416","21:25:31","21","21","compatibletest","3","attributeB","32","23","1","457","6","Horrible","-1.7019573479516325598","-559.0625","87.5"
"121416","21:25:31","21","21","compatibletest","3","targetAleft","33","18","1","523","3","bf56_nc.jpg","-1.708198711923798685","-557.9696969696969972574","87.8787878787878753428"
"121416","21:25:31","21","21","compatibletest","3","attributeB","34","23","1","397","8","Hurt","-1.7054746873394739382","-553.2352941176470721985","88.2352941176470579876"
"121416","21:25:31","21","21","compatibletest","3","attributeB","35","23","1","391","4","Nasty","-1.7026047563027475462","-548.6000000000000227374","88.5714285714285693984"
"121416","21:25:31","21","21","compatibletest","3","attributeB","36","23","1","377","1","Evil","-1.6987902985106457798","-543.8333333333333712289","88.8888888888888857309"
"121416","21:25:31","21","21","compatibletest","3","attributeB","37","23","1","373","2","Agony","-1.6950614484566202123","-539.2162162162162530876","89.18918918918919303"
"121416","21:25:31","21","21","compatibletest","3","targetAleft","38","18","1","537","5","bm23_nc.jpg","-1.701502694439523955","-539.1578947368420813291","89.4736842105263150415"
"121416","21:25:31","21","21","compatibletest","3","targetAleft","39","18","1","397","1","bf14_nc.jpg","-1.7003333794359056785","-535.5128205128205536312","89.7435897435897373953"
"121416","21:25:31","21","21","compatibletest","3","targetAleft","40","18","1","387","6","bm56_nc.jpg","-1.6985899599862837039","-531.7999999999999545253","90"
"121416","21:25:31","21","21","compatibletest","3","attributeB","41","23","1","435","5","Terrible","-1.7005870466189370038","-529.439024390243957896","90.2439024390243957896"
"121416","21:25:31","21","21","compatibletest","3","attributeB","42","23","1","409","3","Awful","-1.7009230942033028988","-526.5714285714285551876","90.4761904761904816041"
"121416","21:25:31","21","21","compatibletest","3","targetAleft","43","18","1","421","5","bm23_nc.jpg","-1.7021862930049949103","-524.1162790697674154217","90.6976744186046488494"
"121416","21:25:31","21","21","compatibletest","3","attributeB","44","23","0","623","3","Awful","-1.7075193353490381032","-526.3636363636363739715","88.6363636363636402393"
"121416","21:25:31","21","21","compatibletest","3","targetAleft","45","18","1","543","2","bf23_nc.jpg","-1.7130486640515096841","-526.7333333333333484916","88.8888888888888857309"
"121416","21:25:31","21","21","compatibletest","3","attributeB","46","23","1","461","6","Horrible","-1.7161320883595161391","-525.304347826086996065","89.1304347826087024487"
"121416","21:25:31","21","21","compatibletest","3","attributeB","47","23","1","614","2","Agony","-1.7210343382469692752","-527.1914893617021107275","89.361702127659569328"
"121416","21:25:31","21","21","compatibletest","3","attributeB","48","23","0","672","4","Nasty","-1.7241595610860813714","-530.2083333333333712289","87.5"
"121416","21:25:31","21","21","compatibletest","3","attributeB","49","23","1","379","7","Failure","-1.7220832392113567533","-527.122448979591808893","87.7551020408163253705"
"121416","21:25:31","21","21","compatibletest","3","attributeB","50","23","1","352","1","Evil","-1.7181756048339162923","-523.6200000000000045475","88"
"121416","21:25:31","21","21","compatibletest","3","attributeB","51","23","1","347","5","Terrible","-1.7141800579443893238","-520.1568627450980102367","88.2352941176470579876"
"121416","21:25:31","21","21","compatibletest","3","targetAleft","52","18","1","485","3","bf56_nc.jpg","-1.7178816540572117155","-519.4807692307692832401","88.4615384615384670042"
"121416","21:25:31","21","21","compatibletest","3","attributeB","53","23","0","578","8","Hurt","-1.7225117480051810315","-520.5849056603773306051","86.7924528301886795134"
"121416","21:25:31","21","21","compatibletest","3","attributeA","54","18","0","547","7","Peace","-1.7269908400365603374","-521.074074074074019336","85.1851851851851904485"
"121416","21:25:31","21","21","compatibletest","3","targetAleft","55","18","0","718","4","bm14_nc.jpg","-1.7272319438844623285","-524.654545454545427674","83.6363636363636402393"
"121416","21:25:31","21","21","compatibletest","3","attributeA","56","18","1","292","6","Pleasure","-1.7188261577088375098","-520.5","83.9285714285714306016"
"121416","21:25:31","21","21","compatibletest","3","attributeA","57","18","1","245","3","Laughter","-1.7063192156631241669","-515.6666666666666287711","84.2105263157894796677"
"121416","21:25:31","21","21","compatibletest","3","attributeB","58","23","1","496","7","Failure","-1.7100561586291662675","-515.3275862068965125218","84.4827586206896512522"
"121416","21:25:31","21","21","compatibletest","3","attributeA","59","18","0","564","1","Joy","-1.7143472440219071906","-516.1525423728813848356","83.0508474576271140677"
"121416","21:25:31","21","21","compatibletest","3","attributeB","60","23","1","210","8","Hurt","-1.699067983269692439","-511.0500000000000113687","83.3333333333333285964"
"121416","21:25:31","21","21","compatibletest","3","attributeA","61","18","0","607","6","Pleasure","-1.7029750830466547917","-512.6229508196721553759","81.9672131147541023211"
"121416","21:25:31","21","21","compatibletest","3","targetAleft","62","18","1","117","4","bm14_nc.jpg","-1.6774869198120283542","-506.2419354838709750766","82.2580645161290391343"
"121416","21:25:31","21","21","compatibletest","3","attributeA","63","18","1","270","5","Glorious","-1.6697484118178900214","-502.492063492063493868","82.5396825396825448706"
"121416","21:25:31","21","21","compatibletest","3","attributeA","64","18","1","430","7","Peace","-1.6719231193623522724","-501.359375","82.8125"
"121416","21:25:31","21","21","compatibletest","3","targetAleft","65","18","1","597","6","bm56_nc.jpg","-1.6759659095155643449","-502.830769230769249134","83.0769230769230802025"
"121416","21:25:31","21","21","compatibletest","3","attributeA","66","18","1","327","8","Wonderful","-1.6728784462329129301","-500.1666666666666856145","83.3333333333333285964"
"121416","21:25:31","21","21","compatibletest","3","attributeA","67","18","1","313","2","Happy","-1.6690633841759376921","-497.3731343283582191361","83.5820895522388127574"
"121416","21:25:31","21","21","compatibletest","3","attributeA","68","18","1","255","4","Love","-1.6611746265973270642","-493.8088235294117680496","83.823529411764710062"
"121416","21:25:31","21","21","compatibletest","3","attributeA","69","18","1","401","6","Pleasure","-1.6624421478451523182","-492.4637681159420026233","84.0579710144927503279"
"121416","21:25:31","21","21","compatibletest","3","attributeB","70","23","1","480","3","Awful","-1.6659784915961937113","-492.2857142857142775938","84.2857142857142918047"
"121416","21:25:31","21","21","incompatibletest","5","attributeB","1","23","1","808","4","Nasty","1.4013412383192269672","315.7142857142857224062","84.507042253521120756"
"121416","21:25:31","21","21","incompatibletest","5","attributeB","2","23","1","357","5","Terrible","0.533266568963264298","90.2142857142857081953","84.7222222222222285382"
"121416","21:25:31","21","21","incompatibletest","5","attributeA","3","18","0","653","5","Glorious","0.6619467786325791137","113.7142857142857081953","83.5616438356164366041"
"121416","21:25:31","21","21","incompatibletest","5","attributeA","4","18","0","740","4","Love","0.8287916346791975863","147.2142857142857224062","82.432432432432435121"
"121416","21:25:31","21","21","incompatibletest","5","attributeA","5","18","1","544","2","Happy","0.7401159954142517705","128.1142857142857280905","82.6666666666666714036"
"121416","21:25:31","21","21","incompatibletest","5","attributeB","6","23","0","645","1","Evil","0.7646658480383108358","132.2142857142857224062","81.5789473684210548754"
"121416","21:25:31","21","21","incompatibletest","5","attributeA","7","18","1","550","1","Joy","0.7146487775267940101","121.5714285714285693984","81.8181818181818130142"
"121416","21:25:31","21","21","incompatibletest","5","targetAright","8","23","1","676","1","bf14_nc.jpg","0.7575725916079903977","129.3392857142857224062","82.0512820512820582053"
"121416","21:25:31","21","21","incompatibletest","5","attributeA","9","18","1","937","7","Peace","0.9108728260612466432","164.380952380952379599","82.2784810126582328849"
"121416","21:25:31","21","21","incompatibletest","5","attributeB","10","23","1","594","2","Agony","0.8870223018626830491","158.1142857142857280905","82.5"
"121416","21:25:31","21","21","incompatibletest","5","attributeA","11","18","1","503","8","Wonderful","0.8262675234155109072","144.7142857142857224062","82.7160493827160507863"
"121416","21:25:31","21","21","incompatibletest","5","attributeA","12","18","1","596","3","Laughter","0.813987685480893064","141.2976190476190367917","82.9268292682926784209"
"121416","21:25:31","21","21","incompatibletest","5","attributeA","13","18","1","562","3","Laughter","0.7906416800367406239","135.7912087912087883979","83.1325301204819311351"
"121416","21:25:31","21","21","incompatibletest","5","attributeA","14","18","1","737","4","Love","0.8305698493025955864","143.5714285714285836093","83.3333333333333285964"
"121416","21:25:31","21","21","incompatibletest","5","attributeA","15","18","1","784","6","Pleasure","0.8776064451157941093","153.4476190476190424761","83.5294117647058840248"
"121416","21:25:31","21","21","incompatibletest","5","attributeB","16","23","1","719","6","Horrible","0.9018868524036273149","158.0267857142857224062","83.7209302325581461446"
"121416","21:25:31","21","21","incompatibletest","5","attributeA","17","18","1","523","7","Peace","0.8689871281532448588","150.5378151260504182574","83.9080459770114970297"
"121416","21:25:31","21","21","incompatibletest","5","attributeB","18","23","1","928","2","Agony","0.9318086975459540788","166.380952380952379599","84.0909090909090934929"
"121416","21:25:31","21","21","incompatibletest","5","attributeA","19","18","1","472","1","Joy","0.8867259212137151847","156.5563909774436126554","84.269662921348313489"
"121416","21:25:31","21","21","incompatibletest","5","attributeA","20","18","0","3524","8","Wonderful","0.8151422250891647847","300.3142857142856883002","83.3333333333333285964"
"121416","21:25:31","21","21","incompatibletest","5","attributeA","21","18","1","423","2","Happy","0.7742632859779318144","282.7142857142857224062","83.5164835164835182013"
"121416","21:25:31","21","21","incompatibletest","5","attributeA","22","18","1","807","5","Glorious","0.7812598550516856033","284.1688311688311614489","83.6956521739130465676"
"121416","21:25:31","21","21","incompatibletest","5","attributeA","23","18","1","451","4","Love","0.7483172828683540834","270.0186335403726616278","83.8709677419354875383"
"121416","21:25:31","21","21","incompatibletest","5","attributeA","24","18","1","544","2","Happy","0.7285380316888520058","260.9226190476190367917","84.0425531914893610974"
"121416","21:25:31","21","21","incompatibletest","5","attributeB","25","23","1","1195","7","Failure","0.7683001251228325224","278.5942857142857178587","84.2105263157894796677"
"121416","21:25:31","21","21","incompatibletest","5","targetAright","26","23","0","5481","3","bf56_nc.jpg","0.73747542561946966","459.7527472527472696129","83.3333333333333285964"
"121416","21:25:31","21","21","incompatibletest","5","targetAright","27","23","1","383","5","bm23_nc.jpg","0.7082698173519711426","438.6772486772486558948","83.50515463917525949"
"121416","21:25:31","21","21","incompatibletest","5","attributeA","28","18","0","649","3","Laughter","0.696449910413463269","428.6071428571428327814","82.653061224489789538"
"121416","21:25:31","21","21","incompatibletest","5","targetAright","29","23","1","247","2","bf23_nc.jpg","0.6620344652665745011","405.3694581280788042932","82.8282828282828234023"
"121416","21:25:31","21","21","incompatibletest","5","targetAright","30","23","1","230","6","bm56_nc.jpg","0.6285876262200550402","383.1142857142856996688","83"
"121416","21:25:31","21","21","incompatibletest","5","targetAright","31","23","1","287","5","bm23_nc.jpg","0.6003441998873310093","364.1336405529954163285","83.1683168316831711309"
"121416","21:25:31","21","21","incompatibletest","5","attributeA","32","18","1","376","8","Wonderful","0.5785913615229417717","349.1205357142857224062","83.3333333333333285964"
"121416","21:25:31","21","21","incompatibletest","5","attributeA","33","18","1","480","1","Joy","0.5634901181649342172","338.1688311688311614489","83.4951456310679560602"
"121416","21:25:31","21","21","incompatibletest","5","attributeB","34","23","0","538","4","Nasty","0.5521262659364857273","329.5672268907563307039","82.6923076923076934008"
"121416","21:25:31","21","21","incompatibletest","5","attributeA","35","18","0","568","6","Pleasure","0.5428444407531483051","322.3142857142856883002","81.9047619047618979948"
"121416","21:25:31","21","21","incompatibletest","5","targetAright","36","23","1","251","1","bf14_nc.jpg","0.518432489159187937","306.6587301587301794825","82.0754716981132048659"
"121416","21:25:31","21","21","incompatibletest","5","targetAright","37","23","1","268","3","bf56_nc.jpg","0.4960624527523301297","292.3088803088803047103","82.2429906542056130547"
"121416","21:25:31","21","21","incompatibletest","5","attributeB","38","23","1","321","8","Hurt","0.4773229550330291282","280.1090225563909825723","82.4074074074074047758"
"121416","21:25:31","21","21","incompatibletest","5","targetAright","39","23","1","195","4","bm14_nc.jpg","0.453437174931046405","265.3040293040293136073","82.5688073394495347657"
"121416","21:25:31","21","21","incompatibletest","5","targetAright","40","23","1","235","2","bf23_nc.jpg","0.4325267728267708223","252.2392857142857280905","82.7272727272727337322"
"121416","21:25:31","21","21","incompatibletest","5","attributeB","41","23","1","325","3","Awful","0.4166145995629281784","242.0069686411149803007","82.8828828828828818587"
"121416","21:25:31","21","21","incompatibletest","5","attributeB","42","23","1","259","5","Terrible","0.3984762722905629273","230.6904761904762040103","83.0357142857142918047"
"121416","21:25:31","21","21","incompatibletest","5","attributeB","43","23","1","236","1","Evil","0.3801019770456329772","219.3654485049833908761","83.1858407079646013926"
"121416","21:25:31","21","21","incompatibletest","5","targetAright","44","23","1","221","3","bf56_nc.jpg","0.3618470927696531558","208.2142857142857224062","83.3333333333333285964"
"121416","21:25:31","21","21","incompatibletest","5","attributeB","45","23","1","264","6","Horrible","0.3461260196254753452","198.5142857142857053532","83.478260869565218627"
"121416","21:25:31","21","21","incompatibletest","5","targetAright","46","23","1","691","6","bm56_nc.jpg","0.3476025241875148608","198.5186335403726616278","83.620689655172412813"
"121416","21:25:31","21","21","incompatibletest","5","attributeB","47","23","1","441","4","Nasty","0.339718337933971215","193.2036474164133608156","83.760683760683761534"
"121416","21:25:31","21","21","incompatibletest","5","targetAright","48","23","1","351","4","bm14_nc.jpg","0.3286947006493949885","186.2351190476190367917","83.8983050847457576538"
"121416","21:25:31","21","21","incompatibletest","5","targetAright","49","23","1","367","2","bf23_nc.jpg","0.3186815001811420522","179.8775510204081626853","84.0336134453781511411"
"121416","21:25:31","21","21","incompatibletest","5","targetAright","50","23","1","388","5","bm23_nc.jpg","0.3098069895191969403","174.1942857142857121744","84.1666666666666714036"
"121416","21:25:31","21","21","incompatibletest","5","attributeA","51","18","1","433","5","Glorious","0.3028757266056621433","169.6162464985994517974","84.2975206611570229143"
"121416","21:25:31","21","21","incompatibletest","5","attributeA","52","18","1","464","7","Peace","0.2972846443252792903","165.8104395604395620012","84.4262295081967266697"
"121416","21:25:31","21","21","incompatibletest","5","targetAright","53","23","1","454","1","bf14_nc.jpg","0.2915432152186398507","161.9595687331536453257","84.5528455284552791227"
"121416","21:25:31","21","21","incompatibletest","5","attributeA","54","18","0","681","1","Joy","0.2935834169425805551","162.4550264550264557784","83.8709677419354875383"
"121416","21:25:31","21","21","incompatibletest","5","attributeA","55","18","1","171","8","Wonderful","0.2782637962236598761","153.6597402597402606261","84"
"121416","21:25:31","21","21","incompatibletest","5","attributeA","56","18","1","343","2","Happy","0.2693888033203462595","148.25","84.126984126984126533"
"121416","21:25:31","21","21","incompatibletest","5","attributeB","57","23","0","471","1","Evil","0.2650168925209643311","145.2756892230576397651","83.4645669291338521134"
"121416","21:25:31","21","21","incompatibletest","5","targetAright","58","23","1","470","1","bf14_nc.jpg","0.260753794671671757","142.386699507389153041","83.59375"
"121416","21:25:31","21","21","incompatibletest","5","attributeA","59","18","0","565","7","Peace","0.2596105946028932077","141.2058111380145248859","82.945736434108525259"
"121416","21:25:31","21","21","incompatibletest","5","attributeA","60","18","0","564","6","Pleasure","0.2584879698616048826","140.0476190476190367917","82.3076923076923065992"
"121416","21:25:31","21","21","incompatibletest","5","attributeB","61","23","1","14","6","Horrible","0.2397855551351104064","129.9110070257611369016","82.4427480916030503977"
"121416","21:25:31","21","21","incompatibletest","5","attributeA","62","18","0","668","3","Laughter","0.2420347893169346731","130.6497695852534661753","81.8181818181818130142"
"121416","21:25:31","21","21","incompatibletest","5","attributeB","63","23","0","452","7","Failure","0.2378810336486076871","127.9365079365079367335","81.2030075187969941908"
"121416","21:25:31","21","21","incompatibletest","5","targetAright","64","23","1","210","2","bf23_nc.jpg","0.2264730056668273761","121.5267857142857081953","81.343283582089554784"
"121416","21:25:31","21","21","incompatibletest","5","attributeB","65","23","1","175","5","Terrible","0.2143049458207101909","114.7758241758241695152","81.4814814814814809552"
"121416","21:25:31","21","21","incompatibletest","5","attributeB","66","23","1","242","2","Agony","0.2044912460932355736","109.2445887445887393596","81.6176470588235360992"
"121416","21:25:31","21","21","incompatibletest","5","targetAright","67","23","1","197","4","bm14_nc.jpg","0.1936016620667875832","103.2068230277185563182","81.7518248175182549176"
"121416","21:25:31","21","21","incompatibletest","5","targetAright","68","23","1","351","6","bm56_nc.jpg","0.1874545025419796229","99.6113445378151283194","81.8840579710144993442"
"121416","21:25:31","21","21","incompatibletest","5","attributeB","69","23","1","444","8","Hurt","0.1840667999033733238","97.4679089026915050908","82.014388489208627675"
"121416","21:25:31","21","21","incompatibletest","5","attributeA","70","18","0","1242","4","Love","0.2011275367361027022","106.7857142857142918047","81.4285714285714306016"
"121416","22:24:55","6","6","practice_incompatibletest","1","attributeA","2","18","1","1333","5","Glorious","","0","0"
"121416","22:24:55","6","6","practice_incompatibletest","1","attributeB","3","23","1","574","5","Terrible","","0","0"
"121416","22:24:55","6","6","practice_incompatibletest","1","attributeA","4","18","1","445","8","Wonderful","","0","0"
"121416","22:24:55","6","6","practice_incompatibletest","1","attributeB","5","23","1","402","7","Failure","","0","0"
"121416","22:24:55","6","6","practice_incompatibletest","1","attributeB","6","23","1","592","2","Agony","","0","0"
"121416","22:24:55","6","6","practice_incompatibletest","1","attributeA","7","18","0","727","1","Joy","","0","0"
"121416","22:24:55","6","6","practice_incompatibletest","1","attributeB","8","23","1","719","3","Awful","","0","0"
"121416","22:24:55","6","6","practice_incompatibletest","1","attributeB","9","23","1","681","1","Evil","","0","0"
"121416","22:24:55","6","6","practice_incompatibletest","1","attributeA","10","18","1","532","6","Pleasure","","0","0"
"121416","22:24:55","6","6","practice_incompatibletest","1","attributeA","11","18","1","565","3","Laughter","","0","0"
"121416","22:24:55","6","6","incompatibletest","3","attributeA","1","18","1","567","4","Love","","567","100"
"121416","22:24:55","6","6","incompatibletest","3","targetAright","2","23","1","574","1","bf14_nc.jpg","1.4141071184799460791","570.5","100"
"121416","22:24:55","6","6","incompatibletest","3","targetAright","3","23","1","485","2","bf23_nc.jpg","1.6151387738241980152","542","100"
"121416","22:24:55","6","6","incompatibletest","3","attributeA","4","18","1","512","2","Happy","1.7154003379856925804","534.5","100"
"121416","22:24:55","6","6","incompatibletest","3","attributeA","5","18","1","442","7","Peace","1.7563877574313160324","516","100"
"121416","22:24:55","6","6","incompatibletest","3","attributeA","6","18","1","487","7","Peace","1.7959327077546254348","511.1666666666666856145","100"
"121416","22:24:55","6","6","incompatibletest","3","targetAright","7","23","1","425","5","bm23_nc.jpg","1.81156204311841873","498.8571428571428327814","100"
"121416","22:24:55","6","6","incompatibletest","3","attributeA","8","18","1","567","5","Glorious","1.8294632117173947883","507.375","100"
"121416","22:24:55","6","6","incompatibletest","3","attributeA","9","18","1","526","3","Laughter","1.8482457645205130348","509.4444444444444570763","100"
"121416","22:24:55","6","6","incompatibletest","3","attributeA","10","18","1","455","2","Happy","1.85894489213357339","504","100"
"121416","22:24:55","6","6","incompatibletest","3","attributeA","11","18","1","395","6","Pleasure","1.8560307469476913234","494.0909090909090650712","100"
"121416","22:24:55","6","6","incompatibletest","3","attributeA","12","18","1","450","8","Wonderful","1.8649822965666891239","490.4166666666666856145","100"
"121416","22:24:55","6","6","incompatibletest","3","targetAright","13","23","1","374","3","bf56_nc.jpg","1.8589131126738456246","481.4615384615384527933","100"
"121416","22:24:55","6","6","incompatibletest","3","attributeA","14","18","1","469","4","Love","1.8683578219963221656","480.5714285714285551876","100"
"121416","22:24:55","6","6","incompatibletest","3","targetAright","15","23","0","777","6","bm56_nc.jpg","1.807675205982492983","500.3333333333333143855","93.3333333333333285964"
"121416","22:24:55","6","6","incompatibletest","3","attributeA","16","18","1","559","1","Joy","1.8178156415707011906","504","93.75"
"121416","22:24:55","6","6","incompatibletest","3","attributeB","17","23","1","515","8","Hurt","1.8279532595754235391","504.6470588235293917023","94.1176470588235218884"
"121416","22:24:55","6","6","incompatibletest","3","targetAright","18","23","1","482","4","bm14_nc.jpg","1.8360309500701126328","503.3888888888889141526","94.4444444444444428655"
"121416","22:24:55","6","6","incompatibletest","3","attributeB","19","23","1","500","4","Nasty","1.8440290948681781202","503.2105263157894796677","94.7368421052631504153"
"121416","22:24:55","6","6","incompatibletest","3","attributeA","20","18","1","534","6","Pleasure","1.8513085186753728273","504.75","95"
"121416","22:24:55","6","6","incompatibletest","3","attributeB","21","23","1","591","6","Horrible","1.8549917566678657543","508.8571428571428327814","95.2380952380952265912"
"121416","22:24:55","6","6","incompatibletest","3","attributeB","22","23","1","397","1","Evil","1.8522843661310683938","503.7727272727272520569","95.4545454545454532536"
"121416","22:24:55","6","6","incompatibletest","3","attributeB","23","23","1","388","8","Hurt","1.849018535374703287","498.7391304347826235244","95.6521739130434838216"
"121416","22:24:55","6","6","incompatibletest","3","attributeB","24","23","1","387","6","Horrible","1.8463461290768732326","494.0833333333333143855","95.8333333333333428072"
"121416","22:24:55","6","6","incompatibletest","3","attributeA","25","18","1","497","2","Happy","1.852098087328445386","494.1999999999999886313","96"
"121416","22:24:55","6","6","incompatibletest","3","targetAright","26","23","1","420","1","bf14_nc.jpg","1.8534842744089483624","491.3461538461538680167","96.153846153846160405"
"121416","22:24:55","6","6","incompatibletest","3","attributeB","27","23","1","529","3","Awful","1.8583840813107765921","492.7407407407407617939","96.2962962962962905067"
"121416","22:24:55","6","6","incompatibletest","3","attributeB","28","23","1","587","7","Failure","1.8602018446573020949","496.1071428571428327814","96.4285714285714306016"
"121416","22:24:55","6","6","incompatibletest","3","attributeB","29","23","1","442","5","Terrible","1.8626602038083883706","494.2413793103448256261","96.5517241379310320326"
"121416","22:24:55","6","6","incompatibletest","3","targetAright","30","23","1","430","4","bm14_nc.jpg","1.864288759425364761","492.1000000000000227374","96.6666666666666714036"
"121416","22:24:55","6","6","incompatibletest","3","attributeA","31","18","1","595","8","Wonderful","1.8650716184754105864","495.4193548387096939223","96.774193548387103192"
"121416","22:24:55","6","6","incompatibletest","3","attributeB","32","23","1","514","2","Agony","1.8690783157076382714","496","96.875"
"121416","22:24:55","6","6","incompatibletest","3","attributeB","33","23","1","380","4","Nasty","1.8660184283428733476","492.4848484848484986287","96.9696969696969688357"
"121416","22:24:55","6","6","incompatibletest","3","attributeA","34","18","1","517","7","Peace","1.8697249400450424162","493.2058823529411597519","97.0588235294117680496"
"121416","22:24:55","6","6","incompatibletest","3","attributeA","35","18","1","477","1","Joy","1.8729276828712229097","492.7428571428571331126","97.1428571428571387969"
"121416","22:24:55","6","6","incompatibletest","3","attributeA","36","18","1","536","4","Love","1.8759570105059013567","493.9444444444444570763","97.2222222222222143273"
"121416","22:24:55","6","6","incompatibletest","3","targetAright","37","23","1","393","6","bm56_nc.jpg","1.8743576477138577108","491.2162162162161962442","97.2972972972973053629"
"121416","22:24:55","6","6","incompatibletest","3","attributeB","38","23","1","503","5","Terrible","1.877510149789450189","491.5263157894736991693","97.3684210526315752077"
"121416","22:24:55","6","6","incompatibletest","3","attributeB","39","23","1","377","6","Horrible","1.8747415271117746638","488.5897435897435912011","97.4358974358974307961"
"121416","22:24:55","6","6","incompatibletest","3","attributeA","40","18","0","761","5","Glorious","1.8555033909560405547","495.3999999999999772626","95"
"121416","22:24:55","6","6","incompatibletest","3","targetAright","41","23","1","432","5","bm23_nc.jpg","1.856786134830685997","493.8536585365853852636","95.1219512195121978948"
"121416","22:24:55","6","6","incompatibletest","3","attributeA","42","18","1","557","3","Laughter","1.859319461912255278","495.3571428571428327814","95.2380952380952265912"
"121416","22:24:55","6","6","incompatibletest","3","attributeB","43","23","0","613","3","Awful","1.8592943718307086698","498.0930232558139323373","93.0232558139534830843"
"121416","22:24:55","6","6","incompatibletest","3","attributeA","44","18","1","635","5","Glorious","1.8580752709452974525","501.2045454545454390427","93.1818181818181727749"
"121416","22:24:55","6","6","incompatibletest","3","targetAright","45","23","1","591","2","bf23_nc.jpg","1.8595371092272405811","503.1999999999999886313","93.3333333333333285964"
"121416","22:24:55","6","6","incompatibletest","3","attributeB","46","23","1","454","7","Failure","1.8612193702847807941","502.1304347826086882378","93.478260869565218627"
"121416","22:24:55","6","6","incompatibletest","3","attributeA","47","18","0","626","1","Joy","1.8608868257269202129","504.7659574468084997534","91.4893617021276526202"
"121416","22:24:55","6","6","incompatibletest","3","targetAright","48","23","1","407","3","bf56_nc.jpg","1.860153192042072634","502.7291666666666856145","91.6666666666666571928"
"121416","22:24:55","6","6","incompatibletest","3","attributeA","49","18","0","741","8","Wonderful","1.850397322574387271","507.5918367346938566698","89.7959183673469425457"
"121416","22:24:55","6","6","incompatibletest","3","targetAright","50","23","1","413","1","bf14_nc.jpg","1.8500425658564405573","505.6999999999999886313","90"
"121416","22:24:55","6","6","incompatibletest","3","attributeA","51","18","1","515","2","Happy","1.8527808249432360377","505.8823529411764639008","90.1960784313725554284"
"121416","22:24:55","6","6","incompatibletest","3","targetAright","52","23","1","645","5","bm23_nc.jpg","1.8519685745032894442","508.55769230769232081","90.3846153846153868017"
"121416","22:24:55","6","6","incompatibletest","3","attributeB","53","23","1","561","2","Agony","1.8543198851339373068","509.5471698113207708047","90.5660377358490649158"
"121416","22:24:55","6","6","incompatibletest","3","targetAright","54","23","1","393","4","bm14_nc.jpg","1.8527022532409320732","507.3888888888889141526","90.740740740740747583"
"121416","22:24:55","6","6","incompatibletest","3","attributeA","55","18","1","486","4","Love","1.854861554912149435","507","90.9090909090909065071"
"121416","22:24:55","6","6","incompatibletest","3","targetAright","56","23","1","395","2","bf23_nc.jpg","1.85352322034119954","505","91.0714285714285693984"
"121416","22:24:55","6","6","incompatibletest","3","attributeA","57","18","1","545","6","Pleasure","1.8558301706737589942","505.7017543859649322258","91.2280701754385887625"
"121416","22:24:55","6","6","incompatibletest","3","attributeA","58","18","0","666","7","Peace","1.8538409800410586836","508.4655172413793025044","89.6551724137931103087"
"121416","22:24:55","6","6","incompatibletest","3","attributeA","59","18","1","621","3","Laughter","1.8543211896778497572","510.3728813559321793036","89.8305084745762769671"
"121416","22:24:55","6","6","incompatibletest","3","attributeA","60","18","1","411","1","Joy","1.8537535418131929621","508.7166666666666401397","90"
"121416","22:24:55","6","6","incompatibletest","3","targetAright","61","23","1","416","6","bm56_nc.jpg","1.8534941720475586191","507.1967213114754144954","90.1639344262295026056"
"121416","22:24:55","6","6","incompatibletest","3","attributeB","62","23","1","541","8","Hurt","1.8556627913896670545","507.7419354838709750766","90.3225806451612811543"
"121416","22:24:55","6","6","incompatibletest","3","attributeA","63","18","1","454","8","Wonderful","1.8567913775595228376","506.8888888888889141526","90.4761904761904816041"
"121416","22:24:55","6","6","incompatibletest","3","targetAright","64","23","1","386","3","bf56_nc.jpg","1.8551121955607252634","505","90.625"
"121416","22:24:55","6","6","incompatibletest","3","targetAright","65","23","1","465","4","bm14_nc.jpg","1.8565479442328272075","504.38461538461535838","90.7692307692307736033"
"121416","22:24:55","6","6","incompatibletest","3","attributeB","66","23","1","517","1","Evil","1.8585826025652019133","504.5757575757575636999","90.9090909090909065071"
"121416","22:24:55","6","6","incompatibletest","3","targetAright","67","23","0","782","3","bf56_nc.jpg","1.8481697827489280694","508.7164179104477739202","89.5522388059701484053"
"121416","22:24:55","6","6","incompatibletest","3","attributeA","68","18","1","596","7","Peace","1.8494353250811634837","510","89.7058823529411739628"
"121416","22:24:55","6","6","incompatibletest","3","attributeB","69","23","1","658","4","Nasty","1.8485846106905632347","512.1449275362318758198","89.8550724637681099694"
"121416","22:24:55","6","6","incompatibletest","3","attributeB","70","23","1","463","5","Terrible","1.8497875252131230628","511.4428571428571217439","90"
"121416","22:24:55","6","6","compatibletest","5","attributeB","1","23","1","660","3","Awful","-1.1910954432416867022","-148.5571428571428782561","90.1408450704225430172"
"121416","22:24:55","6","6","compatibletest","5","targetAleft","2","18","1","421","6","bm56_nc.jpg","-0.2844400279674327292","-29.0571428571428782561","90.2777777777777856727"
"121416","22:24:55","6","6","compatibletest","5","attributeA","3","18","1","549","6","Pleasure","-0.3136451584853749419","-31.8904761904762494851","90.4109589041095773609"
"121416","22:24:55","6","6","compatibletest","5","targetAleft","4","18","1","381","1","bf14_nc.jpg","0.0859364934661150104","8.6928571428571217439","90.5405405405405332431"
"121416","22:24:55","6","6","compatibletest","5","targetAleft","5","18","1","429","5","bm23_nc.jpg","0.2312915188675107869","23.4428571428571217439","90.6666666666666571928"
"121416","22:24:55","6","6","compatibletest","5","targetAleft","6","18","1","426","2","bf23_nc.jpg","0.33231570364941726","33.7761904761904361294","90.7894736842105345431"
"121416","22:24:55","6","6","compatibletest","5","attributeB","7","23","1","695","2","Agony","0.0266995248179300038","2.7285714285713993377","90.9090909090909065071"
"121416","22:24:55","6","6","compatibletest","5","targetAleft","8","18","1","362","5","bm23_nc.jpg","0.2040195805854977118","21.0678571428571217439","91.0256410256410219972"
"121416","22:24:55","6","6","compatibletest","5","attributeA","9","18","1","450","5","Glorious","0.2482058312263364375","25.5539682539682075912","91.1392405063291164424"
"121416","22:24:55","6","6","compatibletest","5","attributeA","10","18","1","430","4","Love","0.3027236031899342428","31.1428571428571103752","91.25"
"121416","22:24:55","6","6","compatibletest","5","attributeB","11","23","1","411","4","Nasty","0.3633676942002045385","37.4428571428571217439","91.3580246913580253931"
"121416","22:24:55","6","6","compatibletest","5","attributeB","12","23","1","513","8","Hurt","0.3344919574380598171","34.1928571428571217439","91.4634146341463463159"
"121416","22:24:55","6","6","compatibletest","5","targetAleft","13","18","1","411","2","bf23_nc.jpg","0.3839723737725045938","39.2890109890109897606","91.5662650602409655676"
"121416","22:24:55","6","6","compatibletest","5","attributeB","14","23","1","529","1","Evil","0.3469827597747134895","35.2285714285713993377","91.6666666666666571928"
"121416","22:24:55","6","6","compatibletest","5","attributeB","15","23","1","427","7","Failure","0.3798683039992555854","38.509523809523784621","91.7647058823529420124"
"121416","22:24:55","6","6","compatibletest","5","attributeB","16","23","1","472","6","Horrible","0.3825978215606827271","38.5678571428571217439","91.8604651162790730723"
"121416","22:24:55","6","6","compatibletest","5","attributeB","17","23","1","411","5","Terrible","0.4186543356497097745","42.2075630252100495454","91.9540229885057414094"
"121416","22:24:55","6","6","compatibletest","5","attributeB","18","23","1","449","4","Nasty","0.4315696369471614946","43.3317460317460358965","92.0454545454545467464"
"121416","22:24:55","6","6","compatibletest","5","attributeB","19","23","1","477","3","Awful","0.429443065868157503","42.8639097744360810793","92.1348314606741638499"
"121416","22:24:55","6","6","compatibletest","5","targetAleft","20","18","1","416","4","bm14_nc.jpg","0.4562066581557440714","45.4928571428571331126","92.2222222222222285382"
"121416","22:24:55","6","6","compatibletest","5","attributeA","21","18","0","782","3","Laughter","0.2955835094431289445","30.4428571428571217439","91.2087912087912116021"
"121416","22:24:55","6","6","compatibletest","5","attributeB","22","23","0","627","8","Hurt","0.2309458533468415897","23.8064935064934957154","90.2173913043478279405"
"121416","22:24:55","6","6","compatibletest","5","attributeB","23","23","1","720","1","Evil","0.1307928439648164409","13.7037267080744982195","90.3225806451612811543"
"121416","22:24:55","6","6","compatibletest","5","targetAleft","24","18","1","465","1","bf14_nc.jpg","0.1444493237448019329","15.0678571428571217439","90.425531914893625185"
"121416","22:24:55","6","6","compatibletest","5","attributeA","25","18","1","485","2","Happy","0.1495713418234753123","15.5228571428571058277","90.5263157894736849585"
"121416","22:24:55","6","6","compatibletest","5","targetAleft","26","18","1","456","6","bm56_nc.jpg","0.1650101394521067411","17.0582417582417633639","90.625"
"121416","22:24:55","6","6","compatibletest","5","attributeA","27","18","1","364","3","Laughter","0.210666644123064184","21.8873015873015788202","90.7216494845360870158"
"121416","22:24:55","6","6","compatibletest","5","attributeA","28","18","1","619","1","Joy","0.1660866910555042486","17.2642857142856769315","90.8163265306122440279"
"121416","22:24:55","6","6","compatibletest","5","attributeB","29","23","1","513","7","Failure","0.1606746150914248328","16.6152709359605523787","90.9090909090909065071"
"121416","22:24:55","6","6","compatibletest","5","attributeB","30","23","1","475","6","Horrible","0.1678353365932141461","17.2761904761904361294","91"
"121416","22:24:55","6","6","compatibletest","5","attributeB","31","23","1","471","2","Agony","0.1758718432901753004","18.0235023041474278216","91.089108910891098958"
"121416","22:24:55","6","6","compatibletest","5","attributeA","32","18","1","618","5","Glorious","0.1377905183660961541","14.1303571428571217439","91.176470588235289938"
"121416","22:24:55","6","6","compatibletest","5","attributeB","33","23","1","543","8","Hurt","0.1248382478912351545","12.7458874458874333868","91.2621359223301027441"
"121416","22:24:55","6","6","compatibletest","5","attributeB","34","23","1","552","4","Nasty","0.1099243969830280554","11.1781512605041939423","91.346153846153839595"
"121416","22:24:55","6","6","compatibletest","5","targetAleft","35","18","1","592","3","bf56_nc.jpg","0.0842867305755022195","8.5571428571428214127","91.4285714285714306016"
"121416","22:24:55","6","6","compatibletest","5","attributeB","36","23","1","535","2","Agony","0.075839587155830876","7.665079365079350282","91.5094339622641541609"
"121416","22:24:55","6","6","compatibletest","5","attributeB","37","23","1","399","7","Failure","0.1037692603929301211","10.4969111969111850158","91.5887850467289723611"
"121416","22:24:55","6","6","compatibletest","5","attributeB","38","23","1","525","3","Awful","0.0979595128076601596","9.8639097744360810793","91.6666666666666571928"
"121416","22:24:55","6","6","compatibletest","5","attributeB","39","23","1","536","1","Evil","0.0895802880225140402","8.9813186813186689506","91.7431192660550465234"
"121416","22:24:55","6","6","compatibletest","5","attributeA","40","18","1","527","4","Love","0.0838349415651192947","8.3678571428571331126","91.8181818181818272251"
"121416","22:24:55","6","6","compatibletest","5","targetAleft","41","18","1","401","1","bf14_nc.jpg","0.1087010528849646773","10.8574912891986059549","91.8918918918919018779"
"121416","22:24:55","6","6","compatibletest","5","attributeB","42","23","1","511","6","Horrible","0.106700881978991774","10.6095238095238073583","91.9642857142857081953"
"121416","22:24:55","6","6","compatibletest","5","attributeB","43","23","1","417","5","Terrible","0.126406398186201252","12.5591362126245371655","92.035398230088489413"
"121416","22:24:55","6","6","compatibletest","5","attributeA","44","18","1","462","7","Peace","0.1353224325827487307","13.3974025974025607866","92.1052631578947398339"
"121416","22:24:55","6","6","compatibletest","5","attributeA","45","18","1","410","8","Wonderful","0.1551238734666681995","15.3539682539682189599","92.1739130434782651946"
"121416","22:24:55","6","6","compatibletest","5","targetAleft","46","18","1","416","3","bf56_nc.jpg","0.1728541747468927969","17.0950310559006197764","92.2413793103448256261"
"121416","22:24:55","6","6","compatibletest","5","attributeA","47","18","1","397","6","Pleasure","0.1936466776665992096","19.1662613981762888216","92.3076923076923065992"
"121416","22:24:55","6","6","compatibletest","5","targetAleft","48","18","1","420","6","bm56_nc.jpg","0.2091175566930081609","20.6720238095238073583","92.3728813559322077253"
"121416","22:24:55","6","6","compatibletest","5","attributeB","49","23","0","729","3","Awful","0.15718866784624691","15.8102040816326052663","91.596638655462186307"
"121416","22:24:55","6","6","compatibletest","5","targetAleft","50","18","1","642","2","bf23_nc.jpg","0.1276386779216633627","12.8828571428571194701","91.6666666666666571928"
"121416","22:24:55","6","6","compatibletest","5","attributeB","51","23","1","535","7","Failure","0.1210250473062968457","12.168347338935575408","91.7355371900826526144"
"121416","22:24:55","6","6","compatibletest","5","targetAleft","52","18","1","520","4","bm14_nc.jpg","0.1175395795073982258","11.7697802197802161572","91.8032786885245855046"
"121416","22:24:55","6","6","compatibletest","5","targetAleft","53","18","1","513","5","bm23_nc.jpg","0.1155014202695557601","11.5183288409703550315","91.8699186991869964913"
"121416","22:24:55","6","6","compatibletest","5","attributeA","54","18","1","491","2","Happy","0.1176266951275057177","11.6835978835978835377","91.9354838709677437691"
"121416","22:24:55","6","6","compatibletest","5","attributeA","55","18","1","477","7","Peace","0.1222440220388508053","12.0974025974025494179","92"
"121416","22:24:55","6","6","compatibletest","5","targetAleft","56","18","1","465","6","bm56_nc.jpg","0.1288695803027941622","12.7107142857142889625","92.0634920634920632665"
"121416","22:24:55","6","6","compatibletest","5","attributeA","57","18","1","484","2","Happy","0.1319897183921288075","12.9691729323308209132","92.1259842519685037132"
"121416","22:24:55","6","6","compatibletest","5","attributeA","58","18","1","385","6","Pleasure","0.1516051027837281295","14.9256157635467729961","92.1875"
"121416","22:24:55","6","6","compatibletest","5","targetAleft","59","18","1","407","1","bf14_nc.jpg","0.1670314030456170051","16.4428571428571217439","92.2480620155038764096"
"121416","22:24:55","6","6","compatibletest","5","targetAleft","60","18","1","380","2","bf23_nc.jpg","0.1860888975990139249","18.3595238095238073583","92.3076923076923065992"
"121416","22:24:55","6","6","compatibletest","5","attributeB","61","23","1","619","6","Horrible","0.1649318239873081848","16.2953161592505466615","92.3664122137404604018"
"121416","22:24:55","6","6","compatibletest","5","attributeB","62","23","1","345","4","Nasty","0.1883211688787835847","18.7170506912441965142","92.4242424242424220893"
"121416","22:24:55","6","6","compatibletest","5","attributeA","63","18","1","529","1","Joy","0.1831754100939004537","18.1412698412698318862","92.4812030075188005185"
"121416","22:24:55","6","6","compatibletest","5","targetAleft","64","18","1","531","3","bf56_nc.jpg","0.1778444987628239604","17.5522321428571217439","92.5373134328358162293"
"121416","22:24:55","6","6","compatibletest","5","attributeA","65","18","1","436","8","Wonderful","0.1872478252932558429","18.4428571428571217439","92.5925925925925952242"
"121416","22:24:55","6","6","compatibletest","5","attributeB","66","23","1","577","8","Hurt","0.1746067406871105454","17.1701298701298696869","92.647058823529420124"
"121416","22:24:55","6","6","compatibletest","5","attributeB","67","23","1","456","5","Terrible","0.18093035330987009","17.7413646055437084215","92.700729927007301967"
"121416","22:24:55","6","6","compatibletest","5","attributeB","68","23","1","492","1","Evil","0.1818426352120519895","17.766386554621817595","92.7536231884057968955"
"121416","22:24:55","6","6","compatibletest","5","attributeA","69","18","1","558","3","Laughter","0.1727284584354273067","16.8341614906831864573","92.8057553956834482278"
"121416","22:24:55","6","6","compatibletest","5","attributeA","70","18","1","382","4","Love","0.1888731784643580547","18.4428571428571217439","92.8571428571428612031"
"121516","03:24:20","20","20","practice_incompatibletest","1","attributeA","2","18","1","511","5","Glorious","","0","0"
"121516","03:24:20","20","20","practice_incompatibletest","1","attributeA","3","18","1","424","7","Peace","","0","0"
"121516","03:24:20","20","20","practice_incompatibletest","1","attributeA","4","18","1","396","1","Joy","","0","0"
"121516","03:24:20","20","20","practice_incompatibletest","1","attributeB","5","23","0","665","3","Awful","","0","0"
"121516","03:24:20","20","20","practice_incompatibletest","1","attributeB","6","23","1","443","2","Agony","","0","0"
