"date","time","subject","blockcode","blocknum","trialcode","trialnum","values.primestim","values.targetstim","response","correct","latency","trial.primeRace.totalpercentcorrect","trial.primeNeutral.totalpercentcorrect"
"041318","17:10:42","905831587","AMP_practice","1","primeNeutralpractice","4","0","0","18","1","1824","0","0"
"041318","17:10:42","905831587","AMP_practice","1","primeRacepractice","5","0","0","18","1","1217","0","0"
"041318","17:10:42","905831587","AMP_practice","1","primeRacepractice","6","0","0","18","1","1023","0","0"
"041318","17:10:42","905831587","AMP_practice","1","primeNeutralpractice","7","0","0","18","1","990","0","0"
"041318","17:10:42","905831587","AMP_practice","1","primeNeutralpractice","8","0","0","18","1","2082","0","0"
"041318","17:10:42","905831587","AMP_practice","1","primeRacepractice","9","0","0","18","1","2675","0","0"
"041318","17:10:42","905831587","AMP_practice","1","primeNeutralpractice","10","0","0","18","1","1309","0","0"
"041318","17:10:42","905831587","AMP_practice","1","primeRacepractice","11","0","0","18","1","862","0","0"
"041318","17:10:42","905831587","AMP_practice","1","primeNeutralpractice","12","0","0","18","1","2127","0","0"
"041318","17:10:42","905831587","AMP_practice","1","primeRacepractice","13","0","0","18","1","936","0","0"
"041318","17:10:42","905831587","AMP_test","2","primeRace","2","3","10","23","1","1771","100","0"
"041318","17:10:42","905831587","AMP_test","2","primeNeutral","3","1","3","23","1","902","100","100"
"041318","17:10:42","905831587","AMP_test","2","primeRace","4","5","15","23","1","817","100","100"
"041318","17:10:42","905831587","AMP_test","2","primeNeutral","5","1","5","23","1","606","100","100"
"041318","17:10:42","905831587","AMP_test","2","primeNeutral","6","1","4","23","1","561","100","100"
"041318","17:10:42","905831587","AMP_test","2","primeRace","7","6","9","23","1","1636","100","100"
"041318","17:10:42","905831587","AMP_test","2","primeRace","8","4","1","23","1","2300","100","100"
"041318","17:10:42","905831587","AMP_test","2","primeRace","9","3","7","23","1","556","100","100"
"041318","17:10:42","905831587","AMP_test","2","primeNeutral","10","1","18","23","1","602","100","100"
"041318","17:10:42","905831587","AMP_test","2","primeRace","11","2","13","23","1","668","100","100"
"041318","17:10:42","905831587","AMP_test","2","primeRace","12","1","1","23","1","846","100","100"
"041318","17:10:42","905831587","AMP_test","2","primeRace","13","1","6","23","1","512","100","100"
"041318","17:10:42","905831587","AMP_test","2","primeRace","14","2","14","23","1","565","100","100"
"041318","17:10:42","905831587","AMP_test","2","primeRace","15","3","2","23","1","666","100","100"
"041318","17:10:42","905831587","AMP_test","2","primeRace","16","4","11","23","1","576","100","100"
"041318","17:10:42","905831587","AMP_test","2","primeRace","17","5","9","23","1","642","100","100"
"041318","17:10:42","905831587","AMP_test","2","primeNeutral","18","1","5","23","1","499","100","100"
"041318","17:10:42","905831587","AMP_test","2","primeNeutral","19","1","15","23","1","457","100","100"
"041318","17:10:42","905831587","AMP_test","2","primeNeutral","20","1","13","23","1","594","100","100"
"041318","17:10:42","905831587","AMP_test","2","primeRace","21","6","16","23","1","827","100","100"
"041318","17:10:42","905831587","AMP_test","2","primeRace","22","6","18","23","1","544","100","100"
"041318","17:10:42","905831587","AMP_test","2","primeRace","23","1","17","23","1","522","100","100"
"041318","17:10:42","905831587","AMP_test","2","primeNeutral","24","1","7","23","1","536","100","100"
"041318","17:10:42","905831587","AMP_test","2","primeNeutral","25","1","4","23","1","552","100","100"
"041318","17:10:42","905831587","AMP_test","2","primeNeutral","26","1","20","23","1","539","100","100"
"041318","17:10:42","905831587","AMP_test","2","primeNeutral","27","1","3","23","1","514","100","100"
"041318","17:10:42","905831587","AMP_test","2","primeRace","28","2","10","23","1","504","100","100"
"041318","17:10:42","905831587","AMP_test","2","primeNeutral","29","1","19","23","1","274","100","100"
"041318","17:10:42","905831587","AMP_test","2","primeNeutral","30","1","12","23","1","478","100","100"
"041318","17:10:42","905831587","AMP_test","2","primeNeutral","31","1","8","23","1","528","100","100"
"041318","17:10:42","905831587","AMP_test","2","primeRace","32","4","18","18","0","892","94","100"
"041318","17:10:42","905831587","AMP_test","2","primeNeutral","33","1","3","23","1","663","94","100"
"041318","17:10:42","905831587","AMP_test","2","primeNeutral","34","1","7","23","1","862","94","100"
"041318","17:10:42","905831587","AMP_test","2","primeNeutral","35","1","19","23","1","397","94","100"
"041318","17:10:42","905831587","AMP_test","2","primeRace","36","5","5","18","0","682","88","100"
"041318","17:10:42","905831587","AMP_test","2","primeRace","37","3","15","18","0","698","84","100"
"041318","17:10:42","905831587","AMP_test","2","primeNeutral","38","1","1","23","1","1411","84","100"
"041318","17:10:42","905831587","AMP_test","2","primeRace","39","3","20","18","0","500","80","100"
"041318","17:10:42","905831587","AMP_test","2","primeRace","40","4","11","18","0","765","76","100"
"041318","17:10:42","905831587","AMP_test","2","primeRace","41","5","12","18","0","551","72","100"
"041318","17:10:42","905831587","AMP_test","2","primeNeutral","42","1","8","23","1","1190","72","100"
"041318","17:10:42","905831587","AMP_test","2","primeRace","43","6","13","18","0","517","69","100"
"041318","17:10:42","905831587","AMP_test","2","primeNeutral","44","1","9","23","1","1071","69","100"
"041318","17:10:42","905831587","AMP_test","2","primeNeutral","45","1","17","23","1","572","69","100"
"041318","17:10:42","905831587","AMP_test","2","primeNeutral","46","1","16","23","1","565","69","100"
"041318","17:10:42","905831587","AMP_test","2","primeRace","47","1","4","18","0","561","66","100"
"041318","17:10:42","905831587","AMP_test","2","primeRace","48","2","14","18","0","817","64","100"
"041318","17:10:42","905831587","AMP_test","2","primeRace","49","6","2","18","0","786","61","100"
"041318","17:10:42","905831587","AMP_test","2","primeNeutral","50","1","10","23","1","788","61","100"
"041318","17:10:42","905831587","AMP_test","2","primeRace","51","4","6","18","0","550","59","100"
"041318","17:10:42","905831587","AMP_test","2","primeNeutral","52","1","1","23","1","974","59","100"
"041318","17:10:42","905831587","AMP_test","2","primeNeutral","53","1","7","23","1","644","59","100"
"041318","17:10:42","905831587","AMP_test","2","primeRace","54","2","11","18","0","540","57","100"
"041318","17:10:42","905831587","AMP_test","2","primeNeutral","55","1","12","23","1","893","57","100"
"041318","17:10:42","905831587","AMP_test","2","primeNeutral","56","1","6","23","1","457","57","100"
"041318","17:10:42","905831587","AMP_test","2","primeNeutral","57","1","18","23","1","583","57","100"
"041318","17:10:42","905831587","AMP_test","2","primeNeutral","58","1","14","23","1","604","57","100"
"041318","17:10:42","905831587","AMP_test","2","primeRace","59","1","10","18","0","462","55","100"
"041318","17:10:42","905831587","AMP_test","2","primeRace","60","3","5","18","0","442","53","100"
"041318","17:10:42","905831587","AMP_test","2","primeNeutral","61","1","9","23","1","582","53","100"
"041318","17:10:42","905831587","AMP_test","2","primeNeutral","62","1","17","23","1","647","53","100"
"041318","17:10:42","905831587","AMP_test","2","primeNeutral","63","1","20","23","1","588","53","100"
"041318","17:10:42","905831587","AMP_test","2","primeRace","64","5","15","18","0","458","51","100"
"041318","17:10:42","905831587","AMP_test","2","primeNeutral","65","1","4","23","1","686","51","100"
"041318","17:10:42","905831587","AMP_test","2","primeNeutral","66","1","2","23","1","698","51","100"
"041318","17:10:42","905831587","AMP_test","2","primeRace","67","4","16","18","0","610","50","100"
"041318","17:10:42","905831587","AMP_test","2","primeNeutral","68","1","13","23","1","682","50","100"
"041318","17:10:42","905831587","AMP_test","2","primeNeutral","69","1","19","23","1","566","50","100"
"041318","17:10:42","905831587","AMP_test","2","primeNeutral","70","1","8","23","1","584","50","100"
"041318","17:10:42","905831587","AMP_test","2","primeNeutral","71","1","3","23","1","548","50","100"
"041318","17:10:42","905831587","AMP_test","2","primeRace","72","1","17","18","0","470","48","100"
"041318","17:10:42","905831587","AMP_test","2","primeRace","73","2","7","18","0","406","47","100"
"041318","17:10:42","905831587","AMP_test","2","primeNeutral","74","1","4","23","1","594","47","100"
"041318","17:10:42","905831587","AMP_test","2","primeNeutral","75","1","3","23","1","628","47","100"
"041318","17:10:42","905831587","AMP_test","2","primeNeutral","76","1","1","23","1","619","47","100"
"041318","17:10:42","905831587","AMP_test","2","primeRace","77","5","12","18","0","519","45","100"
"041318","17:10:42","905831587","AMP_test","2","primeNeutral","78","1","9","23","1","502","45","100"
"041318","17:10:42","905831587","AMP_test","2","primeRace","79","3","10","18","0","650","44","100"
"041318","17:10:42","905831587","AMP_test","2","primeRace","80","6","19","18","0","415","43","100"
"041318","17:10:42","905831587","AMP_test","2","primeNeutral","81","1","15","23","1","762","43","100"
"041318","17:10:42","905831587","AMP_test","2","primeNeutral","82","1","13","23","1","711","43","100"
"041318","17:10:42","905831587","AMP_test","2","primeNeutral","83","1","18","23","1","585","43","100"
"041318","17:10:42","905831587","AMP_test","2","primeRace","84","2","16","18","0","755","42","100"
"041318","17:10:42","905831587","AMP_test","2","primeNeutral","85","1","8","23","1","429","42","100"
"041318","17:10:42","905831587","AMP_test","2","primeRace","86","4","14","18","0","413","41","100"
"041318","17:10:42","905831587","AMP_test","2","primeRace","87","3","5","18","0","291","40","100"
"041318","17:10:42","905831587","AMP_test","2","primeNeutral","88","1","2","23","1","492","40","100"
"041318","17:10:42","905831587","AMP_test","2","primeRace","89","1","6","18","0","433","39","100"
"041318","17:10:42","905831587","AMP_test","2","primeRace","90","5","20","18","0","1037","38","100"
"041318","17:10:42","905831587","AMP_test","2","primeRace","91","6","11","18","0","369","37","100"
"041318","17:10:42","905831587","AMP_test","2","primeNeutral","92","1","4","23","1","609","37","100"
"041318","17:10:42","905831587","AMP_test","2","primeRace","93","5","13","18","0","585","36","100"
"041318","17:10:42","905831587","AMP_test","2","primeRace","94","3","17","18","0","503","35","100"
"041318","17:10:42","905831587","AMP_test","2","primeRace","95","4","10","18","0","510","34","100"
"041318","17:10:42","905831587","AMP_test","2","primeNeutral","96","1","8","23","1","792","34","100"
"041318","17:10:42","905831587","AMP_test","2","primeRace","97","1","20","18","0","583","34","100"
"041318","17:10:42","905831587","AMP_test","2","primeNeutral","98","1","18","23","1","591","34","100"
"041318","17:10:42","905831587","AMP_test","2","primeRace","99","6","6","18","0","1458","33","100"
"041318","17:10:42","905831587","AMP_test","2","primeRace","100","2","11","18","0","349","32","100"
"041318","17:10:42","905831587","AMP_test","2","primeRace","101","5","2","23","1","823","34","100"
"041318","17:25:23","767115399","AMP_practice","1","primeRacepractice","4","0","0","18","1","1579","0","0"
"041318","17:25:23","767115399","AMP_practice","1","primeNeutralpractice","5","0","0","18","1","954","0","0"
"041318","17:25:23","767115399","AMP_practice","1","primeRacepractice","6","0","0","18","1","1361","0","0"
"041318","17:25:23","767115399","AMP_practice","1","primeNeutralpractice","7","0","0","18","1","1113","0","0"
"041318","17:25:23","767115399","AMP_practice","1","primeRacepractice","8","0","0","23","0","1279","0","0"
"041318","17:25:23","767115399","AMP_practice","1","primeRacepractice","9","0","0","18","1","724","0","0"
"041318","17:25:23","767115399","AMP_practice","1","primeNeutralpractice","10","0","0","18","1","1301","0","0"
"041318","17:25:23","767115399","AMP_practice","1","primeNeutralpractice","11","0","0","18","1","814","0","0"
"041318","17:25:23","767115399","AMP_practice","1","primeRacepractice","12","0","0","18","1","648","0","0"
"041318","17:25:23","767115399","AMP_practice","1","primeNeutralpractice","13","0","0","23","1","831","0","0"
"041318","17:25:23","767115399","AMP_test","2","primeNeutral","2","1","4","18","0","652","0","0"
"041318","17:25:23","767115399","AMP_test","2","primeNeutral","3","1","1","18","0","815","0","0"
"041318","17:25:23","767115399","AMP_test","2","primeRace","4","2","19","18","0","868","0","0"
"041318","17:25:23","767115399","AMP_test","2","primeRace","5","1","15","18","0","590","0","0"
"041318","17:25:23","767115399","AMP_test","2","primeNeutral","6","1","13","23","1","812","0","33"
"041318","17:25:23","767115399","AMP_test","2","primeNeutral","7","1","11","18","0","633","0","25"
"041318","17:25:23","767115399","AMP_test","2","primeNeutral","8","1","16","18","0","741","0","20"
"041318","17:25:23","767115399","AMP_test","2","primeRace","9","6","10","18","0","533","0","20"
"041318","17:25:23","767115399","AMP_test","2","primeRace","10","4","9","18","0","564","0","20"
"041318","17:25:23","767115399","AMP_test","2","primeRace","11","3","5","18","0","532","0","20"
"041318","17:25:23","767115399","AMP_test","2","primeRace","12","5","11","18","0","539","0","20"
"041318","17:25:23","767115399","AMP_test","2","primeNeutral","13","1","13","23","1","947","0","33"
"041318","17:25:23","767115399","AMP_test","2","primeRace","14","2","4","18","0","827","0","33"
"041318","17:25:23","767115399","AMP_test","2","primeNeutral","15","1","6","18","0","672","0","28"
"041318","17:25:23","767115399","AMP_test","2","primeRace","16","1","10","18","0","578","0","28"
"041318","17:25:23","767115399","AMP_test","2","primeNeutral","17","1","12","23","1","448","0","37"
"041318","17:25:23","767115399","AMP_test","2","primeRace","18","5","14","18","0","420","0","37"
"041318","17:25:23","767115399","AMP_test","2","primeNeutral","19","1","15","23","1","712","0","44"
"041318","17:25:23","767115399","AMP_test","2","primeNeutral","20","1","18","23","1","473","0","50"
"041318","17:25:23","767115399","AMP_test","2","primeRace","21","6","8","23","1","972","10","50"
"041318","17:25:23","767115399","AMP_test","2","primeRace","22","3","2","18","0","594","9","50"
"041318","17:25:23","767115399","AMP_test","2","primeNeutral","23","1","20","18","0","560","9","45"
"041318","17:25:23","767115399","AMP_test","2","primeNeutral","24","1","16","23","1","495","9","50"
"041318","17:25:23","767115399","AMP_test","2","primeRace","25","2","17","18","0","681","8","50"
"041318","17:25:23","767115399","AMP_test","2","primeNeutral","26","1","5","23","1","827","8","53"
"041318","17:25:23","767115399","AMP_test","2","primeNeutral","27","1","19","23","1","1064","8","57"
"041318","17:25:23","767115399","AMP_test","2","primeNeutral","28","1","1","23","1","635","8","60"
"041318","17:25:23","767115399","AMP_test","2","primeNeutral","29","1","3","18","0","559","8","56"
"041318","17:25:23","767115399","AMP_test","2","primeNeutral","30","1","7","18","0","558","8","52"
"041318","17:25:23","767115399","AMP_test","2","primeNeutral","31","1","9","18","0","413","8","50"
"041318","17:25:23","767115399","AMP_test","2","primeNeutral","32","1","9","18","0","394","8","47"
"041318","17:25:23","767115399","AMP_test","2","primeRace","33","4","20","18","0","616","7","47"
"041318","17:25:23","767115399","AMP_test","2","primeRace","34","6","16","18","0","844","7","47"
"041318","17:25:23","767115399","AMP_test","2","primeNeutral","35","1","14","23","1","304","7","50"
"041318","17:25:23","767115399","AMP_test","2","primeNeutral","36","1","3","18","0","865","7","47"
"041318","17:25:23","767115399","AMP_test","2","primeRace","37","1","13","18","0","660","6","47"
"041318","17:25:23","767115399","AMP_test","2","primeRace","38","2","19","23","1","743","12","47"
"041318","17:25:23","767115399","AMP_test","2","primeNeutral","39","1","5","18","0","439","12","45"
"041318","17:25:23","767115399","AMP_test","2","primeNeutral","40","1","17","18","0","579","12","43"
"041318","17:25:23","767115399","AMP_test","2","primeNeutral","41","1","15","23","1","617","12","45"
"041318","17:25:23","767115399","AMP_test","2","primeRace","42","5","10","18","0","549","11","45"
"041318","17:25:23","767115399","AMP_test","2","primeRace","43","3","8","18","0","957","11","45"
"041318","17:25:23","767115399","AMP_test","2","primeRace","44","4","12","23","1","596","15","45"
"041318","17:25:23","767115399","AMP_test","2","primeRace","45","3","11","23","1","642","20","45"
"041318","17:25:23","767115399","AMP_test","2","primeRace","46","1","1","18","0","413","19","45"
"041318","17:25:23","767115399","AMP_test","2","primeRace","47","2","2","18","0","1002","18","45"
"041318","17:25:23","767115399","AMP_test","2","primeNeutral","48","1","7","18","0","1936","18","44"
"041318","17:25:23","767115399","AMP_test","2","primeNeutral","49","1","6","18","0","608","18","42"
"041318","17:25:23","767115399","AMP_test","2","primeRace","50","5","4","23","1","661","21","42"
"041318","17:25:23","767115399","AMP_test","2","primeRace","51","4","18","18","0","880","20","42"
"041318","17:25:23","767115399","AMP_test","2","primeRace","52","6","9","18","0","666","20","42"
"041318","17:25:23","767115399","AMP_test","2","primeNeutral","53","1","7","23","1","565","20","44"
"041318","17:25:23","767115399","AMP_test","2","primeRace","54","4","13","18","0","372","19","44"
"041318","17:25:23","767115399","AMP_test","2","primeRace","55","1","3","18","0","362","18","44"
"041318","17:25:23","767115399","AMP_test","2","primeNeutral","56","1","2","23","1","441","18","46"
"041318","17:25:23","767115399","AMP_test","2","primeRace","57","2","19","18","0","389","17","46"
"041318","17:25:23","767115399","AMP_test","2","primeNeutral","58","1","18","18","0","443","17","44"
"041318","17:25:23","767115399","AMP_test","2","primeNeutral","59","1","20","23","1","414","17","46"
"041318","17:25:23","767115399","AMP_test","2","primeRace","60","6","1","18","0","627","17","46"
"041318","17:25:23","767115399","AMP_test","2","primeNeutral","61","1","8","18","0","568","17","45"
"041318","17:25:23","767115399","AMP_test","2","primeRace","62","3","15","23","1","750","20","45"
"041318","17:25:23","767115399","AMP_test","2","primeNeutral","63","1","5","23","1","1021","20","46"
"041318","17:25:23","767115399","AMP_test","2","primeRace","64","5","16","23","1","610","22","46"
"041318","17:25:23","767115399","AMP_test","2","primeRace","65","3","11","23","1","479","25","46"
"041318","17:25:23","767115399","AMP_test","2","primeNeutral","66","1","12","18","0","377","25","45"
"041318","17:25:23","767115399","AMP_test","2","primeNeutral","67","1","10","18","0","272","25","44"
"041318","17:25:23","767115399","AMP_test","2","primeNeutral","68","1","4","18","0","338","25","42"
"041318","17:25:23","767115399","AMP_test","2","primeNeutral","69","1","17","23","1","90","25","44"
"041318","17:25:23","767115399","AMP_test","2","primeNeutral","70","1","6","23","1","715","25","45"
"041318","17:25:23","767115399","AMP_test","2","primeNeutral","71","1","14","18","0","332","25","44"
"041318","17:25:23","767115399","AMP_test","2","primeRace","72","4","14","18","0","555","24","44"
"041318","17:25:23","767115399","AMP_test","2","primeNeutral","73","1","11","18","0","323","24","43"
"041318","17:25:23","767115399","AMP_test","2","primeNeutral","74","1","8","18","0","203","24","42"
"041318","17:25:23","767115399","AMP_test","2","primeNeutral","75","1","2","18","0","296","24","41"
"041318","17:25:23","767115399","AMP_test","2","primeNeutral","76","1","3","23","1","98","24","42"
"041318","17:25:23","767115399","AMP_test","2","primeNeutral","77","1","9","23","1","179","24","44"
"041318","17:25:23","767115399","AMP_test","2","primeRace","78","5","7","18","0","10","23","44"
"041318","17:25:23","767115399","AMP_test","2","primeNeutral","79","1","5","18","0","6","23","43"
"041318","17:25:23","767115399","AMP_test","2","primeRace","80","6","10","18","0","3987","22","43"
"041318","17:25:23","767115399","AMP_test","2","primeRace","81","2","20","18","0","490","22","43"
"041318","17:25:23","767115399","AMP_test","2","primeRace","82","1","16","18","0","332","21","43"
"041318","17:25:23","767115399","AMP_test","2","primeRace","83","4","12","23","1","405","23","43"
"041318","17:25:23","767115399","AMP_test","2","primeRace","84","3","15","23","1","369","25","43"
"041318","17:25:23","767115399","AMP_test","2","primeNeutral","85","1","19","23","1","479","25","44"
"041318","17:25:23","767115399","AMP_test","2","primeRace","86","5","17","18","0","490","25","44"
"041318","17:25:23","767115399","AMP_test","2","primeNeutral","87","1","6","18","0","380","25","43"
"041318","17:25:23","767115399","AMP_test","2","primeRace","88","2","4","18","0","562","24","43"
"041318","17:25:23","767115399","AMP_test","2","primeNeutral","89","1","18","23","1","689","24","44"
"041318","17:25:23","767115399","AMP_test","2","primeNeutral","90","1","1","18","0","483","24","43"
"041318","17:25:23","767115399","AMP_test","2","primeRace","91","6","13","18","0","613","23","43"
"041318","17:25:23","767115399","AMP_test","2","primeRace","92","1","13","18","0","554","23","43"
"041318","17:25:23","767115399","AMP_test","2","primeRace","93","4","12","23","1","625","25","43"
"041318","17:25:23","767115399","AMP_test","2","primeNeutral","94","1","2","18","0","365","25","42"
"041318","17:25:23","767115399","AMP_test","2","primeNeutral","95","1","20","23","1","796","25","44"
"041318","17:25:23","767115399","AMP_test","2","primeRace","96","5","4","18","0","570","24","44"
"041318","17:25:23","767115399","AMP_test","2","primeRace","97","3","8","18","0","592","23","44"
"041318","17:25:23","767115399","AMP_test","2","primeRace","98","2","6","18","0","678","23","44"
"041318","17:25:23","767115399","AMP_test","2","primeRace","99","1","15","23","1","745","25","44"
"041318","17:25:23","767115399","AMP_test","2","primeRace","100","6","7","18","0","800","24","44"
"041318","17:25:23","767115399","AMP_test","2","primeRace","101","1","5","18","0","597","24","44"
"041318","17:31:07","830748203","AMP_practice","1","primeNeutralpractice","4","0","0","23","1","3089","0","0"
"041318","17:31:07","830748203","AMP_practice","1","primeNeutralpractice","5","0","0","23","1","1274","0","0"
"041318","17:31:07","830748203","AMP_practice","1","primeRacepractice","6","0","0","23","0","1473","0","0"
"041318","17:31:07","830748203","AMP_practice","1","primeNeutralpractice","7","0","0","23","1","790","0","0"
"041318","17:31:07","830748203","AMP_practice","1","primeRacepractice","8","0","0","23","0","1374","0","0"
"041318","17:31:07","830748203","AMP_practice","1","primeRacepractice","9","0","0","23","0","778","0","0"
"041318","17:31:07","830748203","AMP_practice","1","primeRacepractice","10","0","0","23","0","735","0","0"
"041318","17:31:07","830748203","AMP_practice","1","primeNeutralpractice","11","0","0","23","1","887","0","0"
"041318","17:31:07","830748203","AMP_practice","1","primeRacepractice","12","0","0","23","0","837","0","0"
"041318","17:31:07","830748203","AMP_practice","1","primeNeutralpractice","13","0","0","23","1","392","0","0"
"041318","17:31:07","830748203","AMP_test","2","primeNeutral","2","1","9","23","1","1080","0","100"
"041318","17:31:07","830748203","AMP_test","2","primeRace","3","3","1","23","1","480","100","100"
"041318","17:31:07","830748203","AMP_test","2","primeNeutral","4","1","10","23","1","442","100","100"
"041318","17:31:07","830748203","AMP_test","2","primeRace","5","1","16","23","1","586","100","100"
"041318","17:31:07","830748203","AMP_test","2","primeNeutral","6","1","18","23","1","424","100","100"
"041318","17:31:07","830748203","AMP_test","2","primeRace","7","5","5","23","1","445","100","100"
"041318","17:31:07","830748203","AMP_test","2","primeRace","8","6","14","23","1","426","100","100"
"041318","17:31:07","830748203","AMP_test","2","primeRace","9","2","13","23","1","922","100","100"
"041318","17:31:07","830748203","AMP_test","2","primeNeutral","10","1","17","23","1","1444","100","100"
"041318","17:31:07","830748203","AMP_test","2","primeRace","11","4","2","23","1","412","100","100"
"041318","17:31:07","830748203","AMP_test","2","primeRace","12","3","16","23","1","515","100","100"
"041318","17:31:07","830748203","AMP_test","2","primeNeutral","13","1","2","23","1","517","100","100"
"041318","17:31:07","830748203","AMP_test","2","primeRace","14","2","12","23","1","560","100","100"
"041318","17:31:07","830748203","AMP_test","2","primeNeutral","15","1","8","23","1","374","100","100"
"041318","17:31:07","830748203","AMP_test","2","primeRace","16","5","1","23","1","824","100","100"
"041318","17:31:07","830748203","AMP_test","2","primeNeutral","17","1","17","23","1","508","100","100"
"041318","17:31:07","830748203","AMP_test","2","primeRace","18","6","10","23","1","481","100","100"
"041318","17:31:07","830748203","AMP_test","2","primeNeutral","19","1","9","23","1","541","100","100"
"041318","17:31:07","830748203","AMP_test","2","primeRace","20","1","7","23","1","360","100","100"
"041318","17:31:07","830748203","AMP_test","2","primeNeutral","21","1","19","23","1","867","100","100"
"041318","17:31:07","830748203","AMP_test","2","primeNeutral","22","1","3","23","1","980","100","100"
"041318","17:31:07","830748203","AMP_test","2","primeRace","23","3","6","23","1","324","100","100"
"041318","17:31:07","830748203","AMP_test","2","primeNeutral","24","1","15","23","1","1614","100","100"
"041318","17:31:07","830748203","AMP_test","2","primeNeutral","25","1","5","23","1","350","100","100"
"041318","17:31:07","830748203","AMP_test","2","primeRace","26","4","4","23","1","303","100","100"
"041318","17:31:07","830748203","AMP_test","2","primeNeutral","27","1","20","23","1","1370","100","100"
"041318","17:31:07","830748203","AMP_test","2","primeRace","28","1","14","23","1","245","100","100"
"041318","17:31:07","830748203","AMP_test","2","primeRace","29","2","11","23","1","254","100","100"
"041318","17:31:07","830748203","AMP_test","2","primeNeutral","30","1","18","23","1","243","100","100"
"041318","17:31:07","830748203","AMP_test","2","primeNeutral","31","1","13","23","1","379","100","100"
"041318","17:31:07","830748203","AMP_test","2","primeNeutral","32","1","14","23","1","504","100","100"
"041318","17:31:07","830748203","AMP_test","2","primeRace","33","3","3","23","1","433","100","100"
"041318","17:31:07","830748203","AMP_test","2","primeRace","34","4","19","23","1","473","100","100"
"041318","17:31:07","830748203","AMP_test","2","primeNeutral","35","1","2","23","1","365","100","100"
"041318","17:31:07","830748203","AMP_test","2","primeNeutral","36","1","20","23","1","326","100","100"
"041318","17:31:07","830748203","AMP_test","2","primeNeutral","37","1","1","23","1","450","100","100"
"041318","17:31:07","830748203","AMP_test","2","primeNeutral","38","1","6","23","1","265","100","100"
"041318","17:31:07","830748203","AMP_test","2","primeRace","39","5","16","23","1","728","100","100"
"041318","17:31:07","830748203","AMP_test","2","primeNeutral","40","1","17","23","1","438","100","100"
"041318","17:31:07","830748203","AMP_test","2","primeRace","41","6","15","23","1","702","100","100"
"041318","17:31:07","830748203","AMP_test","2","primeNeutral","42","1","10","23","1","660","100","100"
"041318","17:31:07","830748203","AMP_test","2","primeNeutral","43","1","9","23","1","1092","100","100"
"041318","17:31:07","830748203","AMP_test","2","primeRace","44","2","13","23","1","282","100","100"
"041318","17:31:07","830748203","AMP_test","2","primeRace","45","3","8","23","1","225","100","100"
"041318","17:31:07","830748203","AMP_test","2","primeNeutral","46","1","18","23","1","257","100","100"
"041318","17:31:07","830748203","AMP_test","2","primeNeutral","47","1","4","23","1","343","100","100"
"041318","17:31:07","830748203","AMP_test","2","primeRace","48","4","12","23","1","547","100","100"
"041318","17:31:07","830748203","AMP_test","2","primeNeutral","49","1","11","23","1","1209","100","100"
"041318","17:31:07","830748203","AMP_test","2","primeRace","50","5","7","23","1","273","100","100"
"041318","17:31:07","830748203","AMP_test","2","primeRace","51","1","5","23","1","275","100","100"
"041318","17:31:07","830748203","AMP_test","2","primeNeutral","52","1","15","23","1","860","100","100"
"041318","17:31:07","830748203","AMP_test","2","primeRace","53","6","11","23","1","1569","100","100"
"041318","17:31:07","830748203","AMP_test","2","primeNeutral","54","1","3","23","1","270","100","100"
"041318","17:31:07","830748203","AMP_test","2","primeNeutral","55","1","17","23","1","425","100","100"
"041318","17:31:07","830748203","AMP_test","2","primeNeutral","56","1","13","23","1","494","100","100"
"041318","17:31:07","830748203","AMP_test","2","primeRace","57","3","10","23","1","373","100","100"
"041318","17:31:07","830748203","AMP_test","2","primeRace","58","5","8","23","1","536","100","100"
"041318","17:31:07","830748203","AMP_test","2","primeNeutral","59","1","7","23","1","365","100","100"
"041318","17:31:07","830748203","AMP_test","2","primeRace","60","2","14","23","1","363","100","100"
"041318","17:31:07","830748203","AMP_test","2","primeNeutral","61","1","2","23","1","430","100","100"
"041318","17:31:07","830748203","AMP_test","2","primeNeutral","62","1","16","23","1","466","100","100"
"041318","17:31:07","830748203","AMP_test","2","primeRace","63","6","9","23","1","401","100","100"
"041318","17:31:07","830748203","AMP_test","2","primeNeutral","64","1","20","23","1","948","100","100"
"041318","17:31:07","830748203","AMP_test","2","primeRace","65","4","12","23","1","385","100","100"
"041318","17:31:07","830748203","AMP_test","2","primeRace","66","1","4","23","1","452","100","100"
"041318","17:31:07","830748203","AMP_test","2","primeRace","67","2","5","23","1","383","100","100"
"041318","17:31:07","830748203","AMP_test","2","primeNeutral","68","1","1","23","1","420","100","100"
"041318","17:31:07","830748203","AMP_test","2","primeNeutral","69","1","18","23","1","272","100","100"
"041318","17:31:07","830748203","AMP_test","2","primeRace","70","5","6","23","1","361","100","100"
"041318","17:31:07","830748203","AMP_test","2","primeNeutral","71","1","19","23","1","468","100","100"
"041318","17:31:07","830748203","AMP_test","2","primeRace","72","6","1","23","1","374","100","100"
"041318","17:31:07","830748203","AMP_test","2","primeRace","73","1","18","23","1","1025","100","100"
"041318","17:31:07","830748203","AMP_test","2","primeNeutral","74","1","19","23","1","2242","100","100"
"041318","17:31:07","830748203","AMP_test","2","primeRace","75","3","3","23","1","355","100","100"
"041318","17:31:07","830748203","AMP_test","2","primeRace","76","4","8","23","1","351","100","100"
"041318","17:31:07","830748203","AMP_test","2","primeNeutral","77","1","10","23","1","317","100","100"
"041318","17:31:07","830748203","AMP_test","2","primeRace","78","6","17","23","1","590","100","100"
"041318","17:31:07","830748203","AMP_test","2","primeNeutral","79","1","6","23","1","259","100","100"
"041318","17:31:07","830748203","AMP_test","2","primeRace","80","3","7","23","1","337","100","100"
"041318","17:31:07","830748203","AMP_test","2","primeNeutral","81","1","11","23","1","368","100","100"
"041318","17:31:07","830748203","AMP_test","2","primeRace","82","2","12","23","1","362","100","100"
"041318","17:31:07","830748203","AMP_test","2","primeRace","83","4","13","23","1","462","100","100"
"041318","17:31:07","830748203","AMP_test","2","primeRace","84","5","5","23","1","367","100","100"
"041318","17:31:07","830748203","AMP_test","2","primeNeutral","85","1","14","23","1","576","100","100"
"041318","17:31:07","830748203","AMP_test","2","primeNeutral","86","1","2","23","1","380","100","100"
"041318","17:31:07","830748203","AMP_test","2","primeNeutral","87","1","4","23","1","297","100","100"
"041318","17:31:07","830748203","AMP_test","2","primeNeutral","88","1","9","23","1","467","100","100"
"041318","17:31:07","830748203","AMP_test","2","primeRace","89","1","20","23","1","359","100","100"
"041318","17:31:07","830748203","AMP_test","2","primeRace","90","6","15","23","1","292","100","100"
"041318","17:31:07","830748203","AMP_test","2","primeNeutral","91","1","16","23","1","376","100","100"
"041318","17:31:07","830748203","AMP_test","2","primeRace","92","1","6","23","1","361","100","100"
"041318","17:31:07","830748203","AMP_test","2","primeRace","93","3","5","23","1","278","100","100"
"041318","17:31:07","830748203","AMP_test","2","primeRace","94","2","18","23","1","389","100","100"
"041318","17:31:07","830748203","AMP_test","2","primeRace","95","4","20","23","1","788","100","100"
"041318","17:31:07","830748203","AMP_test","2","primeNeutral","96","1","10","23","1","3399","100","100"
"041318","17:31:07","830748203","AMP_test","2","primeRace","97","5","12","23","1","309","100","100"
"041318","17:31:07","830748203","AMP_test","2","primeNeutral","98","1","4","23","1","74","100","100"
"041318","17:31:07","830748203","AMP_test","2","primeNeutral","99","1","11","23","1","179","100","100"
"041318","17:31:07","830748203","AMP_test","2","primeNeutral","100","1","13","23","1","228","100","100"
"041318","17:31:07","830748203","AMP_test","2","primeRace","101","1","19","23","1","209","100","100"
"041318","12:55:49","231421624","AMP_practice","1","primeNeutralpractice","4","0","0","18","1","1662","0","0"
"041318","12:55:49","231421624","AMP_practice","1","primeRacepractice","5","0","0","23","0","2524","0","0"
"041318","12:55:49","231421624","AMP_practice","1","primeRacepractice","6","0","0","23","0","417","0","0"
"041318","12:55:49","231421624","AMP_practice","1","primeNeutralpractice","7","0","0","18","1","1290","0","0"
"041318","12:55:49","231421624","AMP_practice","1","primeRacepractice","8","0","0","23","0","944","0","0"
"041318","12:55:49","231421624","AMP_practice","1","primeNeutralpractice","9","0","0","23","1","7357","0","0"
"041318","12:55:49","231421624","AMP_practice","1","primeRacepractice","10","0","0","23","0","496","0","0"
"041318","12:55:49","231421624","AMP_practice","1","primeNeutralpractice","11","0","0","23","1","2972","0","0"
"041318","12:55:49","231421624","AMP_practice","1","primeNeutralpractice","12","0","0","18","1","1312","0","0"
"041318","12:55:49","231421624","AMP_practice","1","primeRacepractice","13","0","0","23","0","1161","0","0"
"041318","12:55:49","231421624","AMP_test","2","primeRace","2","1","12","23","1","971","100","0"
"041318","12:55:49","231421624","AMP_test","2","primeRace","3","5","10","18","0","5867","50","0"
"041318","12:55:49","231421624","AMP_test","2","primeNeutral","4","1","16","18","0","527","50","0"
"041318","12:55:49","231421624","AMP_test","2","primeRace","5","6","1","23","1","384","66","0"
"041318","12:55:49","231421624","AMP_test","2","primeNeutral","6","1","7","23","1","475","66","50"
"041318","12:55:49","231421624","AMP_test","2","primeNeutral","7","1","5","18","0","637","66","33"
"041318","12:55:49","231421624","AMP_test","2","primeRace","8","1","18","18","0","467","50","33"
"041318","12:55:49","231421624","AMP_test","2","primeNeutral","9","1","11","23","1","594","50","50"
"041318","12:55:49","231421624","AMP_test","2","primeNeutral","10","1","13","18","0","1057","50","40"
"041318","12:55:49","231421624","AMP_test","2","primeRace","11","2","3","23","1","542","60","40"
"041318","12:55:49","231421624","AMP_test","2","primeRace","12","4","9","23","1","355","66","40"
"041318","12:55:49","231421624","AMP_test","2","primeRace","13","3","7","23","1","359","71","40"
"041318","12:55:49","231421624","AMP_test","2","primeRace","14","5","18","23","1","460","75","40"
"041318","12:55:49","231421624","AMP_test","2","primeNeutral","15","1","3","18","0","501","75","33"
"041318","12:55:49","231421624","AMP_test","2","primeNeutral","16","1","6","18","0","1268","75","28"
"041318","12:55:49","231421624","AMP_test","2","primeRace","17","4","20","23","1","258","77","28"
"041318","12:55:49","231421624","AMP_test","2","primeNeutral","18","1","11","18","0","446","77","25"
"041318","12:55:49","231421624","AMP_test","2","primeRace","19","1","2","18","0","914","70","25"
"041318","12:55:49","231421624","AMP_test","2","primeNeutral","20","1","10","23","1","573","70","33"
"041318","12:55:49","231421624","AMP_test","2","primeRace","21","3","16","23","1","4181","72","33"
"041318","12:55:49","231421624","AMP_test","2","primeRace","22","2","13","23","1","208","75","33"
"041318","12:55:49","231421624","AMP_test","2","primeNeutral","23","1","8","18","0","348","75","30"
"041318","12:55:49","231421624","AMP_test","2","primeNeutral","24","1","1","18","0","428","75","27"
"041318","12:55:49","231421624","AMP_test","2","primeNeutral","25","1","17","18","0","515","75","25"
"041318","12:55:49","231421624","AMP_test","2","primeNeutral","26","1","14","18","0","437","75","23"
"041318","12:55:49","231421624","AMP_test","2","primeRace","27","6","4","23","1","406","76","23"
"041318","12:55:49","231421624","AMP_test","2","primeNeutral","28","1","19","18","0","609","76","21"
"041318","12:55:49","231421624","AMP_test","2","primeNeutral","29","1","5","18","0","1100","76","20"
"041318","12:55:49","231421624","AMP_test","2","primeRace","30","6","12","23","1","385","78","20"
"041318","12:55:49","231421624","AMP_test","2","primeRace","31","2","15","18","0","997","73","20"
"041318","12:55:49","231421624","AMP_test","2","primeNeutral","32","1","13","18","0","472","73","18"
"041318","12:55:49","231421624","AMP_test","2","primeRace","33","5","5","23","1","222","75","18"
"041318","12:55:49","231421624","AMP_test","2","primeNeutral","34","1","4","18","0","552","75","17"
"041318","12:55:49","231421624","AMP_test","2","primeRace","35","3","17","23","1","457","76","17"
"041318","12:55:49","231421624","AMP_test","2","primeRace","36","1","12","18","0","779","72","17"
"041318","12:55:49","231421624","AMP_test","2","primeNeutral","37","1","14","18","0","1005","72","16"
"041318","12:55:49","231421624","AMP_test","2","primeNeutral","38","1","6","18","0","465","72","15"
"041318","12:55:49","231421624","AMP_test","2","primeNeutral","39","1","11","18","0","495","72","15"
"041318","12:55:49","231421624","AMP_test","2","primeRace","40","4","3","23","1","507","73","15"
"041318","12:55:49","231421624","AMP_test","2","primeNeutral","41","1","15","18","0","519","73","14"
"041318","12:55:49","231421624","AMP_test","2","primeNeutral","42","1","7","18","0","450","73","13"
"041318","12:55:49","231421624","AMP_test","2","primeNeutral","43","1","18","18","0","754","73","13"
"041318","12:55:49","231421624","AMP_test","2","primeRace","44","6","20","23","1","481","75","13"
"041318","12:55:49","231421624","AMP_test","2","primeNeutral","45","1","10","18","0","423","75","12"
"041318","12:55:49","231421624","AMP_test","2","primeRace","46","5","2","23","1","513","76","12"
"041318","12:55:49","231421624","AMP_test","2","primeRace","47","1","8","18","0","1133","72","12"
"041318","12:55:49","231421624","AMP_test","2","primeNeutral","48","1","19","18","0","730","72","12"
"041318","12:55:49","231421624","AMP_test","2","primeNeutral","49","1","1","18","0","426","72","11"
"041318","12:55:49","231421624","AMP_test","2","primeNeutral","50","1","16","18","0","369","72","11"
"041318","12:55:49","231421624","AMP_test","2","primeRace","51","2","9","23","1","468","73","11"
"041318","12:55:49","231421624","AMP_test","2","primeNeutral","52","1","5","18","0","669","73","10"
"041318","12:55:49","231421624","AMP_test","2","primeNeutral","53","1","16","18","0","849","73","10"
"041318","12:55:49","231421624","AMP_test","2","primeNeutral","54","1","15","18","0","537","73","10"
"041318","12:55:49","231421624","AMP_test","2","primeRace","55","4","12","23","1","282","75","10"
"041318","12:55:49","231421624","AMP_test","2","primeRace","56","3","14","23","1","447","76","10"
"041318","12:55:49","231421624","AMP_test","2","primeNeutral","57","1","13","18","0","359","76","9"
"041318","12:55:49","231421624","AMP_test","2","primeRace","58","3","8","23","1","308","76","9"
"041318","12:55:49","231421624","AMP_test","2","primeNeutral","59","1","10","18","0","540","76","9"
"041318","12:55:49","231421624","AMP_test","2","primeRace","60","6","19","23","1","196","77","9"
"041318","12:55:49","231421624","AMP_test","2","primeNeutral","61","1","7","18","0","460","77","9"
"041318","12:55:49","231421624","AMP_test","2","primeRace","62","4","1","23","1","145","78","9"
"041318","12:55:49","231421624","AMP_test","2","primeNeutral","63","1","2","18","0","420","78","8"
"041318","12:55:49","231421624","AMP_test","2","primeRace","64","2","11","23","1","172","79","8"
"041318","12:55:49","231421624","AMP_test","2","primeRace","65","1","3","23","1","562","80","8"
"041318","12:55:49","231421624","AMP_test","2","primeRace","66","5","9","23","1","258","80","8"
"041318","12:55:49","231421624","AMP_test","2","primeNeutral","67","1","18","18","0","421","80","8"
"041318","12:55:49","231421624","AMP_test","2","primeRace","68","4","17","23","1","108","81","8"
"041318","12:55:49","231421624","AMP_test","2","primeNeutral","69","1","4","18","0","665","81","8"
"041318","12:55:49","231421624","AMP_test","2","primeNeutral","70","1","20","18","0","457","81","8"
"041318","12:55:49","231421624","AMP_test","2","primeRace","71","3","6","23","1","383","81","8"
"041318","12:55:49","231421624","AMP_test","2","primeRace","72","1","2","23","1","288","82","8"
"041318","12:55:49","231421624","AMP_test","2","primeRace","73","6","18","23","1","126","82","8"
"041318","12:55:49","231421624","AMP_test","2","primeNeutral","74","1","5","18","0","485","82","7"
"041318","12:55:49","231421624","AMP_test","2","primeNeutral","75","1","9","18","0","574","82","7"
"041318","12:55:49","231421624","AMP_test","2","primeNeutral","76","1","20","18","0","505","82","7"
"041318","12:55:49","231421624","AMP_test","2","primeRace","77","2","4","23","1","141","83","7"
"041318","12:55:49","231421624","AMP_test","2","primeNeutral","78","1","8","18","0","574","83","7"
"041318","12:55:49","231421624","AMP_test","2","primeRace","79","5","11","18","0","451","81","7"
"041318","12:55:49","231421624","AMP_test","2","primeRace","80","1","12","23","1","183","81","7"
"041318","12:55:49","231421624","AMP_test","2","primeNeutral","81","1","19","18","0","817","81","7"
"041318","12:55:49","231421624","AMP_test","2","primeRace","82","5","14","23","1","282","82","7"
"041318","12:55:49","231421624","AMP_test","2","primeNeutral","83","1","13","18","0","304","82","6"
"041318","12:55:49","231421624","AMP_test","2","primeNeutral","84","1","16","18","0","529","82","6"
"041318","12:55:49","231421624","AMP_test","2","primeRace","85","2","3","23","1","163","82","6"
"041318","12:55:49","231421624","AMP_test","2","primeRace","86","3","17","18","0","755","80","6"
"041318","12:55:49","231421624","AMP_test","2","primeNeutral","87","1","1","23","1","429","80","8"
"041318","12:55:49","231421624","AMP_test","2","primeRace","88","6","10","18","0","528","78","8"
"041318","12:55:49","231421624","AMP_test","2","primeRace","89","4","15","23","1","364","79","8"
"041318","12:55:49","231421624","AMP_test","2","primeNeutral","90","1","6","18","0","297","79","8"
"041318","12:55:49","231421624","AMP_test","2","primeRace","91","4","7","23","1","242","79","8"
"041318","12:55:49","231421624","AMP_test","2","primeRace","92","1","20","23","1","330","80","8"
"041318","12:55:49","231421624","AMP_test","2","primeRace","93","2","8","23","1","231","80","8"
"041318","12:55:49","231421624","AMP_test","2","primeRace","94","5","16","23","1","159","80","8"
"041318","12:55:49","231421624","AMP_test","2","primeNeutral","95","1","1","18","0","447","80","8"
"041318","12:55:49","231421624","AMP_test","2","primeRace","96","6","10","23","1","150","81","8"
"041318","12:55:49","231421624","AMP_test","2","primeNeutral","97","1","12","18","0","493","81","8"
"041318","12:55:49","231421624","AMP_test","2","primeNeutral","98","1","6","18","0","657","81","8"
"041318","12:55:49","231421624","AMP_test","2","primeRace","99","3","19","23","1","318","81","8"
"041318","12:55:49","231421624","AMP_test","2","primeNeutral","100","1","13","18","0","348","81","8"
"041318","12:55:49","231421624","AMP_test","2","primeRace","101","5","18","23","1","219","82","8"
"041318","12:57:12","755961286","AMP_practice","1","primeNeutralpractice","4","0","0","23","1","1312","0","0"
"041318","12:57:12","755961286","AMP_practice","1","primeRacepractice","5","0","0","23","0","312","0","0"
"041318","12:57:12","755961286","AMP_practice","1","primeNeutralpractice","6","0","0","23","1","353","0","0"
"041318","12:57:12","755961286","AMP_practice","1","primeNeutralpractice","7","0","0","23","1","500","0","0"
"041318","12:57:12","755961286","AMP_practice","1","primeNeutralpractice","8","0","0","23","1","253","0","0"
"041318","12:57:12","755961286","AMP_practice","1","primeRacepractice","9","0","0","23","0","175","0","0"
"041318","12:57:12","755961286","AMP_practice","1","primeRacepractice","10","0","0","23","0","164","0","0"
"041318","12:57:12","755961286","AMP_practice","1","primeRacepractice","11","0","0","23","0","172","0","0"
"041318","12:57:12","755961286","AMP_practice","1","primeNeutralpractice","12","0","0","23","1","265","0","0"
"041318","12:57:12","755961286","AMP_practice","1","primeRacepractice","13","0","0","23","0","201","0","0"
"041318","12:57:12","755961286","AMP_test","2","primeRace","2","5","19","23","1","151","100","0"
"041318","12:57:12","755961286","AMP_test","2","primeRace","3","6","1","23","1","190","100","0"
"041318","12:57:12","755961286","AMP_test","2","primeRace","4","1","4","23","1","171","100","0"
"041318","12:57:12","755961286","AMP_test","2","primeNeutral","5","1","15","23","1","241","100","100"
"041318","12:57:12","755961286","AMP_test","2","primeRace","6","3","5","23","1","210","100","100"
"041318","12:57:12","755961286","AMP_test","2","primeNeutral","7","1","16","23","1","143","100","100"
"041318","12:57:12","755961286","AMP_test","2","primeRace","8","4","2","23","1","166","100","100"
"041318","12:57:12","755961286","AMP_test","2","primeRace","9","5","12","23","1","202","100","100"
"041318","12:57:12","755961286","AMP_test","2","primeRace","10","2","6","23","1","216","100","100"
"041318","12:57:12","755961286","AMP_test","2","primeRace","11","1","11","23","1","220","100","100"
"041318","12:57:12","755961286","AMP_test","2","primeRace","12","3","12","23","1","487","100","100"
"041318","12:57:12","755961286","AMP_test","2","primeRace","13","6","1","23","1","215","100","100"
"041318","12:57:12","755961286","AMP_test","2","primeNeutral","14","1","8","23","1","401","100","100"
"041318","12:57:12","755961286","AMP_test","2","primeRace","15","4","19","23","1","383","100","100"
"041318","12:57:12","755961286","AMP_test","2","primeNeutral","16","1","18","23","1","365","100","100"
"041318","12:57:12","755961286","AMP_test","2","primeRace","17","2","3","23","1","203","100","100"
"041318","12:57:12","755961286","AMP_test","2","primeNeutral","18","1","6","23","1","567","100","100"
"041318","12:57:12","755961286","AMP_test","2","primeRace","19","5","14","23","1","331","100","100"
"041318","12:57:12","755961286","AMP_test","2","primeNeutral","20","1","15","23","1","226","100","100"
"041318","12:57:12","755961286","AMP_test","2","primeRace","21","1","5","23","1","311","100","100"
"041318","12:57:12","755961286","AMP_test","2","primeRace","22","2","7","23","1","207","100","100"
"041318","12:57:12","755961286","AMP_test","2","primeRace","23","6","13","23","1","154","100","100"
"041318","12:57:12","755961286","AMP_test","2","primeRace","24","4","20","23","1","136","100","100"
"041318","12:57:12","755961286","AMP_test","2","primeNeutral","25","1","17","23","1","191","100","100"
"041318","12:57:12","755961286","AMP_test","2","primeRace","26","5","16","23","1","265","100","100"
"041318","12:57:12","755961286","AMP_test","2","primeRace","27","3","9","23","1","173","100","100"
"041318","12:57:12","755961286","AMP_test","2","primeRace","28","5","2","23","1","107","100","100"
"041318","12:57:12","755961286","AMP_test","2","primeNeutral","29","1","11","23","1","129","100","100"
"041318","12:57:12","755961286","AMP_test","2","primeRace","30","3","4","23","1","162","100","100"
"041318","12:57:12","755961286","AMP_test","2","primeRace","31","1","10","23","1","320","100","100"
"041318","12:57:12","755961286","AMP_test","2","primeNeutral","32","1","6","23","1","205","100","100"
"041318","12:57:12","755961286","AMP_test","2","primeRace","33","6","17","23","1","227","100","100"
"041318","12:57:12","755961286","AMP_test","2","primeRace","34","4","10","23","1","454","100","100"
"041318","12:57:12","755961286","AMP_test","2","primeRace","35","2","15","23","1","1951","100","100"
"041318","12:57:12","755961286","AMP_test","2","primeRace","36","4","9","23","1","2827","100","100"
"041318","12:57:12","755961286","AMP_test","2","primeNeutral","37","1","11","23","1","739","100","100"
"041318","12:57:12","755961286","AMP_test","2","primeRace","38","2","2","23","1","967","100","100"
"041318","12:57:12","755961286","AMP_test","2","primeRace","39","6","18","23","1","173","100","100"
"041318","12:57:12","755961286","AMP_test","2","primeRace","40","1","1","23","1","810","100","100"
"041318","12:57:12","755961286","AMP_test","2","primeNeutral","41","1","12","23","1","124","100","100"
"041318","12:57:12","755961286","AMP_test","2","primeNeutral","42","1","4","23","1","132","100","100"
"041318","12:57:12","755961286","AMP_test","2","primeNeutral","43","1","19","23","1","229","100","100"
"041318","12:57:12","755961286","AMP_test","2","primeNeutral","44","1","5","23","1","110","100","100"
"041318","12:57:12","755961286","AMP_test","2","primeNeutral","45","1","20","23","1","96","100","100"
"041318","12:57:12","755961286","AMP_test","2","primeNeutral","46","1","3","23","1","94","100","100"
"041318","12:57:12","755961286","AMP_test","2","primeNeutral","47","1","16","23","1","531","100","100"
"041318","12:57:12","755961286","AMP_test","2","primeNeutral","48","1","13","23","1","609","100","100"
"041318","12:57:12","755961286","AMP_test","2","primeRace","49","5","8","23","1","548","100","100"
"041318","12:57:12","755961286","AMP_test","2","primeRace","50","3","14","23","1","161","100","100"
"041318","12:57:12","755961286","AMP_test","2","primeNeutral","51","1","7","23","1","14","100","100"
"041318","12:57:12","755961286","AMP_test","2","primeNeutral","52","1","17","23","1","178","100","100"
"041318","12:57:12","755961286","AMP_test","2","primeRace","53","1","19","23","1","17","100","100"
"041318","12:57:12","755961286","AMP_test","2","primeRace","54","6","5","23","1","1054","100","100"
"041318","12:57:12","755961286","AMP_test","2","primeNeutral","55","1","7","23","1","622","100","100"
"041318","12:57:12","755961286","AMP_test","2","primeRace","56","3","18","23","1","752","100","100"
"041318","12:57:12","755961286","AMP_test","2","primeNeutral","57","1","15","23","1","373","100","100"
"041318","12:57:12","755961286","AMP_test","2","primeRace","58","2","10","23","1","3282","100","100"
"041318","12:57:12","755961286","AMP_test","2","primeNeutral","59","1","20","23","1","153","100","100"
"041318","12:57:12","755961286","AMP_test","2","primeNeutral","60","1","4","23","1","505","100","100"
"041318","12:57:12","755961286","AMP_test","2","primeRace","61","4","14","23","1","783","100","100"
"041318","12:57:12","755961286","AMP_test","2","primeNeutral","62","1","6","23","1","235","100","100"
"041318","12:57:12","755961286","AMP_test","2","primeRace","63","5","3","23","1","198","100","100"
"041318","12:57:12","755961286","AMP_test","2","primeNeutral","64","1","2","23","1","203","100","100"
"041318","12:57:12","755961286","AMP_test","2","primeRace","65","4","8","23","1","109","100","100"
"041318","12:57:12","755961286","AMP_test","2","primeRace","66","6","11","23","1","358","100","100"
"041318","12:57:12","755961286","AMP_test","2","primeNeutral","67","1","1","23","1","1292","100","100"
"041318","12:57:12","755961286","AMP_test","2","primeNeutral","68","1","13","23","1","187","100","100"
"041318","12:57:12","755961286","AMP_test","2","primeNeutral","69","1","16","23","1","656","100","100"
"041318","12:57:12","755961286","AMP_test","2","primeNeutral","70","1","12","23","1","711","100","100"
"041318","12:57:12","755961286","AMP_test","2","primeNeutral","71","1","9","23","1","423","100","100"
"041318","12:57:12","755961286","AMP_test","2","primeNeutral","72","1","2","23","1","252","100","100"
"041318","12:57:12","755961286","AMP_test","2","primeNeutral","73","1","11","23","1","199","100","100"
"041318","12:57:12","755961286","AMP_test","2","primeNeutral","74","1","12","23","1","195","100","100"
"041318","12:57:12","755961286","AMP_test","2","primeNeutral","75","1","5","23","1","584","100","100"
"041318","12:57:12","755961286","AMP_test","2","primeNeutral","76","1","18","23","1","380","100","100"
"041318","12:57:12","755961286","AMP_test","2","primeRace","77","5","1","23","1","1417","100","100"
"041318","12:57:12","755961286","AMP_test","2","primeRace","78","2","20","23","1","195","100","100"
"041318","12:57:12","755961286","AMP_test","2","primeNeutral","79","1","8","23","1","198","100","100"
"041318","12:57:12","755961286","AMP_test","2","primeRace","80","1","15","23","1","556","100","100"
"041318","12:57:12","755961286","AMP_test","2","primeNeutral","81","1","9","23","1","207","100","100"
"041318","12:57:12","755961286","AMP_test","2","primeNeutral","82","1","14","23","1","139","100","100"
"041318","12:57:12","755961286","AMP_test","2","primeRace","83","3","7","23","1","315","100","100"
"041318","12:57:12","755961286","AMP_test","2","primeRace","84","4","19","23","1","228","100","100"
"041318","12:57:12","755961286","AMP_test","2","primeNeutral","85","1","10","23","1","246","100","100"
"041318","12:57:12","755961286","AMP_test","2","primeRace","86","1","6","23","1","193","100","100"
"041318","12:57:12","755961286","AMP_test","2","primeNeutral","87","1","16","23","1","190","100","100"
"041318","12:57:12","755961286","AMP_test","2","primeNeutral","88","1","4","23","1","355","100","100"
"041318","12:57:12","755961286","AMP_test","2","primeNeutral","89","1","13","23","1","207","100","100"
"041318","12:57:12","755961286","AMP_test","2","primeNeutral","90","1","3","23","1","266","100","100"
"041318","12:57:12","755961286","AMP_test","2","primeNeutral","91","1","17","23","1","398","100","100"
"041318","12:57:12","755961286","AMP_test","2","primeNeutral","92","1","10","23","1","290","100","100"
"041318","12:57:12","755961286","AMP_test","2","primeNeutral","93","1","11","23","1","321","100","100"
"041318","12:57:12","755961286","AMP_test","2","primeRace","94","5","16","23","1","306","100","100"
"041318","12:57:12","755961286","AMP_test","2","primeRace","95","2","3","23","1","354","100","100"
"041318","12:57:12","755961286","AMP_test","2","primeRace","96","6","15","23","1","270","100","100"
"041318","12:57:12","755961286","AMP_test","2","primeNeutral","97","1","6","23","1","336","100","100"
"041318","12:57:12","755961286","AMP_test","2","primeRace","98","3","19","23","1","270","100","100"
"041318","12:57:12","755961286","AMP_test","2","primeRace","99","2","14","23","1","329","100","100"
"041318","12:57:12","755961286","AMP_test","2","primeNeutral","100","1","13","23","1","2304","100","100"
"041318","12:57:12","755961286","AMP_test","2","primeNeutral","101","1","8","23","1","1380","100","100"
"041318","09:59:31","442057301","AMP_practice","1","primeRacepractice","4","0","0","23","0","978","0","0"
"041318","09:59:31","442057301","AMP_practice","1","primeNeutralpractice","5","0","0","18","1","625","0","0"
"041318","09:59:31","442057301","AMP_practice","1","primeNeutralpractice","6","0","0","23","1","1011","0","0"
"041318","09:59:31","442057301","AMP_practice","1","primeNeutralpractice","7","0","0","18","1","845","0","0"
"041318","09:59:31","442057301","AMP_practice","1","primeNeutralpractice","8","0","0","23","1","639","0","0"
"041318","09:59:31","442057301","AMP_practice","1","primeRacepractice","9","0","0","23","0","481","0","0"
"041318","09:59:31","442057301","AMP_practice","1","primeRacepractice","10","0","0","23","0","529","0","0"
"041318","09:59:31","442057301","AMP_practice","1","primeRacepractice","11","0","0","18","1","718","0","0"
"041318","09:59:31","442057301","AMP_practice","1","primeRacepractice","12","0","0","23","0","625","0","0"
"041318","09:59:31","442057301","AMP_practice","1","primeNeutralpractice","13","0","0","23","1","855","0","0"
"041318","09:59:31","442057301","AMP_test","2","primeNeutral","2","1","18","23","1","582","0","100"
"041318","09:59:31","442057301","AMP_test","2","primeNeutral","3","1","12","23","1","592","0","100"
"041318","09:59:31","442057301","AMP_test","2","primeNeutral","4","1","16","23","1","584","0","100"
"041318","09:59:31","442057301","AMP_test","2","primeNeutral","5","1","7","23","1","655","0","100"
"041318","09:59:31","442057301","AMP_test","2","primeRace","6","4","17","23","1","745","100","100"
"041318","09:59:31","442057301","AMP_test","2","primeNeutral","7","1","1","18","0","606","100","80"
"041318","09:59:31","442057301","AMP_test","2","primeNeutral","8","1","4","18","0","612","100","66"
"041318","09:59:31","442057301","AMP_test","2","primeRace","9","3","8","23","1","493","100","66"
"041318","09:59:31","442057301","AMP_test","2","primeNeutral","10","1","3","18","0","526","100","57"
"041318","09:59:31","442057301","AMP_test","2","primeRace","11","5","10","23","1","524","100","57"
"041318","09:59:31","442057301","AMP_test","2","primeNeutral","12","1","5","23","1","627","100","62"
"041318","09:59:31","442057301","AMP_test","2","primeNeutral","13","1","7","23","1","585","100","66"
"041318","09:59:31","442057301","AMP_test","2","primeRace","14","4","6","23","1","733","100","66"
"041318","09:59:31","442057301","AMP_test","2","primeRace","15","2","2","18","0","727","80","66"
"041318","09:59:31","442057301","AMP_test","2","primeRace","16","6","19","18","0","733","66","66"
"041318","09:59:31","442057301","AMP_test","2","primeRace","17","1","11","23","1","580","71","66"
"041318","09:59:31","442057301","AMP_test","2","primeNeutral","18","1","10","23","1","377","71","70"
"041318","09:59:31","442057301","AMP_test","2","primeNeutral","19","1","12","23","1","378","71","72"
"041318","09:59:31","442057301","AMP_test","2","primeNeutral","20","1","1","18","0","408","71","66"
"041318","09:59:31","442057301","AMP_test","2","primeRace","21","1","8","23","1","371","75","66"
"041318","09:59:31","442057301","AMP_test","2","primeRace","22","6","18","23","1","378","77","66"
"041318","09:59:31","442057301","AMP_test","2","primeRace","23","4","3","23","1","470","80","66"
"041318","09:59:31","442057301","AMP_test","2","primeRace","24","5","9","18","0","635","72","66"
"041318","09:59:31","442057301","AMP_test","2","primeRace","25","3","4","23","1","420","75","66"
"041318","09:59:31","442057301","AMP_test","2","primeRace","26","2","15","23","1","408","76","66"
"041318","09:59:31","442057301","AMP_test","2","primeRace","27","2","14","23","1","768","78","66"
"041318","09:59:31","442057301","AMP_test","2","primeNeutral","28","1","20","23","1","578","78","69"
"041318","09:59:31","442057301","AMP_test","2","primeNeutral","29","1","13","18","0","754","78","64"
"041318","09:59:31","442057301","AMP_test","2","primeNeutral","30","1","17","23","1","1076","78","66"
"041318","09:59:31","442057301","AMP_test","2","primeNeutral","31","1","16","23","1","471","78","68"
"041318","09:59:31","442057301","AMP_test","2","primeRace","32","6","18","23","1","622","80","68"
"041318","09:59:31","442057301","AMP_test","2","primeNeutral","33","1","1","23","1","455","80","70"
"041318","09:59:31","442057301","AMP_test","2","primeNeutral","34","1","13","18","0","504","80","66"
"041318","09:59:31","442057301","AMP_test","2","primeNeutral","35","1","6","23","1","749","80","68"
"041318","09:59:31","442057301","AMP_test","2","primeRace","36","4","5","23","1","464","81","68"
"041318","09:59:31","442057301","AMP_test","2","primeNeutral","37","1","15","23","1","651","81","70"
"041318","09:59:31","442057301","AMP_test","2","primeRace","38","3","2","23","1","857","82","70"
"041318","09:59:31","442057301","AMP_test","2","primeRace","39","5","11","23","1","620","83","70"
"041318","09:59:31","442057301","AMP_test","2","primeRace","40","1","8","23","1","590","84","70"
"041318","09:59:31","442057301","AMP_test","2","primeRace","41","2","16","23","1","1377","85","70"
"041318","09:59:31","442057301","AMP_test","2","primeNeutral","42","1","4","18","0","456","85","66"
"041318","09:59:31","442057301","AMP_test","2","primeNeutral","43","1","7","23","1","551","85","68"
"041318","09:59:31","442057301","AMP_test","2","primeNeutral","44","1","10","18","0","727","85","65"
"041318","09:59:31","442057301","AMP_test","2","primeRace","45","4","17","23","1","755","85","65"
"041318","09:59:31","442057301","AMP_test","2","primeNeutral","46","1","9","18","0","605","85","62"
"041318","09:59:31","442057301","AMP_test","2","primeNeutral","47","1","12","23","1","460","85","64"
"041318","09:59:31","442057301","AMP_test","2","primeNeutral","48","1","19","23","1","427","85","65"
"041318","09:59:31","442057301","AMP_test","2","primeNeutral","49","1","3","23","1","713","85","66"
"041318","09:59:31","442057301","AMP_test","2","primeNeutral","50","1","14","23","1","423","85","67"
"041318","09:59:31","442057301","AMP_test","2","primeRace","51","1","20","23","1","412","86","67"
"041318","09:59:31","442057301","AMP_test","2","primeNeutral","52","1","5","23","1","572","86","68"
"041318","09:59:31","442057301","AMP_test","2","primeNeutral","53","1","20","23","1","344","86","70"
"041318","09:59:31","442057301","AMP_test","2","primeNeutral","54","1","3","23","1","485","86","70"
"041318","09:59:31","442057301","AMP_test","2","primeNeutral","55","1","6","18","0","520","86","68"
"041318","09:59:31","442057301","AMP_test","2","primeNeutral","56","1","7","23","1","371","86","69"
"041318","09:59:31","442057301","AMP_test","2","primeNeutral","57","1","19","23","1","435","86","70"
"041318","09:59:31","442057301","AMP_test","2","primeRace","58","6","13","23","1","358","86","70"
"041318","09:59:31","442057301","AMP_test","2","primeRace","59","5","2","23","1","625","87","70"
"041318","09:59:31","442057301","AMP_test","2","primeNeutral","60","1","9","18","0","765","87","68"
"041318","09:59:31","442057301","AMP_test","2","primeNeutral","61","1","1","23","1","364","87","69"
"041318","09:59:31","442057301","AMP_test","2","primeNeutral","62","1","18","18","0","334","87","67"
"041318","09:59:31","442057301","AMP_test","2","primeNeutral","63","1","17","23","1","563","87","68"
"041318","09:59:31","442057301","AMP_test","2","primeNeutral","64","1","14","23","1","292","87","69"
"041318","09:59:31","442057301","AMP_test","2","primeNeutral","65","1","10","23","1","370","87","70"
"041318","09:59:31","442057301","AMP_test","2","primeRace","66","3","12","23","1","399","88","70"
"041318","09:59:31","442057301","AMP_test","2","primeRace","67","5","16","23","1","349","88","70"
"041318","09:59:31","442057301","AMP_test","2","primeNeutral","68","1","8","23","1","404","88","70"
"041318","09:59:31","442057301","AMP_test","2","primeRace","69","3","11","23","1","439","88","70"
"041318","09:59:31","442057301","AMP_test","2","primeRace","70","4","4","23","1","464","89","70"
"041318","09:59:31","442057301","AMP_test","2","primeRace","71","6","15","18","0","444","86","70"
"041318","09:59:31","442057301","AMP_test","2","primeRace","72","1","9","18","0","1035","83","70"
"041318","09:59:31","442057301","AMP_test","2","primeRace","73","2","11","23","1","439","83","70"
"041318","09:59:31","442057301","AMP_test","2","primeRace","74","4","12","23","1","382","84","70"
"041318","09:59:31","442057301","AMP_test","2","primeRace","75","3","10","23","1","434","84","70"
"041318","09:59:31","442057301","AMP_test","2","primeRace","76","1","20","23","1","352","85","70"
"041318","09:59:31","442057301","AMP_test","2","primeNeutral","77","1","17","23","1","551","85","71"
"041318","09:59:31","442057301","AMP_test","2","primeNeutral","78","1","2","23","1","373","85","72"
"041318","09:59:31","442057301","AMP_test","2","primeRace","79","6","5","18","0","307","82","72"
"041318","09:59:31","442057301","AMP_test","2","primeNeutral","80","1","6","23","1","383","82","72"
"041318","09:59:31","442057301","AMP_test","2","primeNeutral","81","1","3","18","0","848","82","71"
"041318","09:59:31","442057301","AMP_test","2","primeRace","82","2","7","23","1","866","83","71"
"041318","09:59:31","442057301","AMP_test","2","primeNeutral","83","1","4","18","0","408","83","69"
"041318","09:59:31","442057301","AMP_test","2","primeRace","84","5","18","23","1","626","83","69"
"041318","09:59:31","442057301","AMP_test","2","primeRace","85","1","14","18","0","359","81","69"
"041318","09:59:31","442057301","AMP_test","2","primeNeutral","86","1","8","23","1","410","81","70"
"041318","09:59:31","442057301","AMP_test","2","primeRace","87","6","16","23","1","405","82","70"
"041318","09:59:31","442057301","AMP_test","2","primeRace","88","4","15","18","0","657","80","70"
"041318","09:59:31","442057301","AMP_test","2","primeRace","89","3","1","23","1","1407","80","70"
"041318","09:59:31","442057301","AMP_test","2","primeRace","90","5","13","23","1","1943","80","70"
"041318","09:59:31","442057301","AMP_test","2","primeRace","91","2","19","23","1","579","81","70"
"041318","09:59:31","442057301","AMP_test","2","primeNeutral","92","1","3","23","1","629","81","70"
"041318","09:59:31","442057301","AMP_test","2","primeRace","93","4","5","23","1","508","81","70"
"041318","09:59:31","442057301","AMP_test","2","primeRace","94","3","4","18","0","577","80","70"
"041318","09:59:31","442057301","AMP_test","2","primeRace","95","1","10","23","1","419","80","70"
"041318","09:59:31","442057301","AMP_test","2","primeNeutral","96","1","18","23","1","522","80","71"
"041318","09:59:31","442057301","AMP_test","2","primeNeutral","97","1","14","23","1","532","80","72"
"041318","09:59:31","442057301","AMP_test","2","primeRace","98","6","1","23","1","370","80","72"
"041318","09:59:31","442057301","AMP_test","2","primeRace","99","5","11","23","1","504","81","72"
"041318","09:59:31","442057301","AMP_test","2","primeRace","100","2","16","18","0","364","79","72"
"041318","09:59:31","442057301","AMP_test","2","primeRace","101","2","15","18","0","361","78","72"
"041318","12:03:31","24129553","AMP_practice","1","primeNeutralpractice","4","0","0","23","1","508","0","0"
"041318","12:03:31","24129553","AMP_practice","1","primeRacepractice","5","0","0","18","1","1429","0","0"
"041318","12:03:31","24129553","AMP_practice","1","primeRacepractice","6","0","0","18","1","540","0","0"
"041318","12:03:31","24129553","AMP_practice","1","primeRacepractice","7","0","0","18","1","519","0","0"
"041318","12:03:31","24129553","AMP_practice","1","primeNeutralpractice","8","0","0","23","1","188","0","0"
"041318","12:03:31","24129553","AMP_practice","1","primeNeutralpractice","9","0","0","18","1","326","0","0"
"041318","12:03:31","24129553","AMP_practice","1","primeRacepractice","10","0","0","23","0","297","0","0"
"041318","12:03:31","24129553","AMP_practice","1","primeNeutralpractice","11","0","0","18","1","371","0","0"
"041318","12:03:31","24129553","AMP_practice","1","primeNeutralpractice","12","0","0","23","1","364","0","0"
"041318","12:03:31","24129553","AMP_practice","1","primeRacepractice","13","0","0","23","0","227","0","0"
"041318","12:03:31","24129553","AMP_test","2","primeRace","2","6","9","23","1","123","100","0"
"041318","12:03:31","24129553","AMP_test","2","primeNeutral","3","1","5","18","0","135","100","0"
"041318","12:03:31","24129553","AMP_test","2","primeRace","4","1","16","23","1","116","100","0"
"041318","12:03:31","24129553","AMP_test","2","primeRace","5","2","11","23","1","139","100","0"
"041318","12:03:31","24129553","AMP_test","2","primeNeutral","6","1","14","18","0","413","100","0"
"041318","12:03:31","24129553","AMP_test","2","primeNeutral","7","1","6","18","0","403","100","0"
"041318","12:03:31","24129553","AMP_test","2","primeRace","8","5","19","23","1","307","100","0"
"041318","12:03:31","24129553","AMP_test","2","primeNeutral","9","1","2","18","0","412","100","0"
"041318","12:03:31","24129553","AMP_test","2","primeRace","10","6","1","23","1","415","100","0"
"041318","12:03:31","24129553","AMP_test","2","primeRace","11","3","3","23","1","319","100","0"
"041318","12:03:31","24129553","AMP_test","2","primeRace","12","4","2","18","0","232","85","0"
"041318","12:03:31","24129553","AMP_test","2","primeNeutral","13","1","20","23","1","200","85","20"
"041318","12:03:31","24129553","AMP_test","2","primeRace","14","6","6","23","1","219","87","20"
"041318","12:03:31","24129553","AMP_test","2","primeRace","15","5","7","18","0","205","77","20"
"041318","12:03:31","24129553","AMP_test","2","primeRace","16","2","13","23","1","156","80","20"
"041318","12:03:31","24129553","AMP_test","2","primeRace","17","1","1","23","1","196","81","20"
"041318","12:03:31","24129553","AMP_test","2","primeRace","18","4","10","18","0","93","75","20"
"041318","12:03:31","24129553","AMP_test","2","primeRace","19","3","18","23","1","96","76","20"
"041318","12:03:31","24129553","AMP_test","2","primeRace","20","1","12","23","1","67","78","20"
"041318","12:03:31","24129553","AMP_test","2","primeRace","21","4","17","23","1","161","80","20"
"041318","12:03:31","24129553","AMP_test","2","primeNeutral","22","1","3","18","0","94","80","16"
"041318","12:03:31","24129553","AMP_test","2","primeNeutral","23","1","5","23","1","135","80","28"
"041318","12:03:31","24129553","AMP_test","2","primeRace","24","6","15","18","0","136","75","28"
"041318","12:03:31","24129553","AMP_test","2","primeNeutral","25","1","11","23","1","32","75","37"
"041318","12:03:31","24129553","AMP_test","2","primeRace","26","5","16","18","0","96","70","37"
"041318","12:03:31","24129553","AMP_test","2","primeRace","27","2","14","18","0","15","66","37"
"041318","12:03:31","24129553","AMP_test","2","primeNeutral","28","1","8","18","0","74","66","33"
"041318","12:03:31","24129553","AMP_test","2","primeRace","29","3","19","18","0","420","63","33"
"041318","12:03:31","24129553","AMP_test","2","primeRace","30","4","4","23","1","68","65","33"
"041318","12:03:31","24129553","AMP_test","2","primeNeutral","31","1","9","23","1","130","65","40"
"041318","12:03:31","24129553","AMP_test","2","primeNeutral","32","1","19","18","0","264","65","36"
"041318","12:03:31","24129553","AMP_test","2","primeRace","33","1","11","18","0","146","61","36"
"041318","12:03:31","24129553","AMP_test","2","primeNeutral","34","1","16","18","0","209","61","33"
"041318","12:03:31","24129553","AMP_test","2","primeRace","35","5","3","18","0","151","59","33"
"041318","12:03:31","24129553","AMP_test","2","primeNeutral","36","1","8","18","0","269","59","30"
"041318","12:03:31","24129553","AMP_test","2","primeNeutral","37","1","20","18","0","327","59","28"
"041318","12:03:31","24129553","AMP_test","2","primeNeutral","38","1","18","23","1","160","59","33"
"041318","12:03:31","24129553","AMP_test","2","primeNeutral","39","1","17","23","1","276","59","37"
"041318","12:03:31","24129553","AMP_test","2","primeNeutral","40","1","5","18","0","360","59","35"
"041318","12:03:31","24129553","AMP_test","2","primeRace","41","3","10","18","0","260","56","35"
"041318","12:03:31","24129553","AMP_test","2","primeRace","42","2","14","23","1","144","58","35"
"041318","12:03:31","24129553","AMP_test","2","primeNeutral","43","1","6","18","0","61","58","33"
"041318","12:03:31","24129553","AMP_test","2","primeRace","44","6","7","23","1","159","60","33"
"041318","12:03:31","24129553","AMP_test","2","primeNeutral","45","1","9","23","1","164","60","36"
"041318","12:03:31","24129553","AMP_test","2","primeRace","46","3","12","18","0","290","57","36"
"041318","12:03:31","24129553","AMP_test","2","primeNeutral","47","1","1","23","1","70","57","40"
"041318","12:03:31","24129553","AMP_test","2","primeRace","48","5","4","23","1","171","59","40"
"041318","12:03:31","24129553","AMP_test","2","primeRace","49","2","13","18","0","433","57","40"
"041318","12:03:31","24129553","AMP_test","2","primeRace","50","4","2","23","1","128","58","40"
"041318","12:03:31","24129553","AMP_test","2","primeRace","51","6","15","23","1","204","60","40"
"041318","12:03:31","24129553","AMP_test","2","primeRace","52","1","2","18","0","296","58","40"
"041318","12:03:31","24129553","AMP_test","2","primeNeutral","53","1","4","23","1","171","58","42"
"041318","12:03:31","24129553","AMP_test","2","primeNeutral","54","1","6","23","1","158","58","45"
"041318","12:03:31","24129553","AMP_test","2","primeNeutral","55","1","5","18","0","428","58","43"
"041318","12:03:31","24129553","AMP_test","2","primeRace","56","1","8","18","0","202","56","43"
"041318","12:03:31","24129553","AMP_test","2","primeRace","57","6","7","18","0","348","54","43"
"041318","12:03:31","24129553","AMP_test","2","primeNeutral","58","1","14","18","0","147","54","41"
"041318","12:03:31","24129553","AMP_test","2","primeNeutral","59","1","16","18","0","27","54","40"
"041318","12:03:31","24129553","AMP_test","2","primeRace","60","3","10","23","1","64","55","40"
"041318","12:03:31","24129553","AMP_test","2","primeRace","61","5","17","23","1","50","57","40"
"041318","12:03:31","24129553","AMP_test","2","primeRace","62","4","18","18","0","344","55","40"
"041318","12:03:31","24129553","AMP_test","2","primeNeutral","63","1","9","23","1","292","55","42"
"041318","12:03:31","24129553","AMP_test","2","primeNeutral","64","1","19","18","0","175","55","40"
"041318","12:03:31","24129553","AMP_test","2","primeRace","65","2","12","18","0","164","54","40"
"041318","12:03:31","24129553","AMP_test","2","primeNeutral","66","1","20","23","1","158","54","42"
"041318","12:03:31","24129553","AMP_test","2","primeNeutral","67","1","13","23","1","164","54","44"
"041318","12:03:31","24129553","AMP_test","2","primeNeutral","68","1","11","23","1","198","54","46"
"041318","12:03:31","24129553","AMP_test","2","primeNeutral","69","1","1","18","0","77","54","45"
"041318","12:03:31","24129553","AMP_test","2","primeRace","70","3","15","23","1","104","55","45"
"041318","12:03:31","24129553","AMP_test","2","primeNeutral","71","1","3","23","1","20","55","46"
"041318","12:03:31","24129553","AMP_test","2","primeRace","72","5","7","23","1","0","56","46"
"041318","12:03:31","24129553","AMP_test","2","primeNeutral","73","1","2","18","0","408","56","45"
"041318","12:03:31","24129553","AMP_test","2","primeNeutral","74","1","17","23","1","64","56","47"
"041318","12:03:31","24129553","AMP_test","2","primeRace","75","4","1","18","0","105","55","47"
"041318","12:03:31","24129553","AMP_test","2","primeNeutral","76","1","14","23","1","291","55","48"
"041318","12:03:31","24129553","AMP_test","2","primeRace","77","1","16","23","1","230","56","48"
"041318","12:03:31","24129553","AMP_test","2","primeNeutral","78","1","10","18","0","128","56","47"
"041318","12:03:31","24129553","AMP_test","2","primeNeutral","79","1","8","23","1","8","56","48"
"041318","12:03:31","24129553","AMP_test","2","primeRace","80","2","15","18","0","332","54","48"
"041318","12:03:31","24129553","AMP_test","2","primeRace","81","6","11","23","1","1764","55","48"
"041318","12:03:31","24129553","AMP_test","2","primeNeutral","82","1","20","23","1","124","55","50"
"041318","12:03:31","24129553","AMP_test","2","primeNeutral","83","1","5","23","1","156","55","51"
"041318","12:03:31","24129553","AMP_test","2","primeRace","84","1","12","23","1","152","56","51"
"041318","12:03:31","24129553","AMP_test","2","primeRace","85","5","6","23","1","196","57","51"
"041318","12:03:31","24129553","AMP_test","2","primeNeutral","86","1","3","23","1","315","57","52"
"041318","12:03:31","24129553","AMP_test","2","primeNeutral","87","1","9","18","0","99","57","51"
"041318","12:03:31","24129553","AMP_test","2","primeRace","88","6","13","23","1","4","58","51"
"041318","12:03:31","24129553","AMP_test","2","primeNeutral","89","1","19","23","1","544","58","52"
"041318","12:03:31","24129553","AMP_test","2","primeNeutral","90","1","18","18","0","184","58","51"
"041318","12:03:31","24129553","AMP_test","2","primeNeutral","91","1","4","23","1","100","58","52"
"041318","12:03:31","24129553","AMP_test","2","primeNeutral","92","1","6","18","0","188","58","51"
"041318","12:03:31","24129553","AMP_test","2","primeRace","93","2","20","23","1","147","59","51"
"041318","12:03:31","24129553","AMP_test","2","primeRace","94","3","8","23","1","93","60","51"
"041318","12:03:31","24129553","AMP_test","2","primeNeutral","95","1","7","23","1","920","60","52"
"041318","12:03:31","24129553","AMP_test","2","primeRace","96","4","15","18","0","296","59","52"
"041318","12:03:31","24129553","AMP_test","2","primeNeutral","97","1","9","23","1","194","59","53"
"041318","12:03:31","24129553","AMP_test","2","primeNeutral","98","1","14","18","0","223","59","52"
"041318","12:03:31","24129553","AMP_test","2","primeNeutral","99","1","13","23","1","633","59","53"
"041318","12:03:31","24129553","AMP_test","2","primeNeutral","100","1","17","23","1","1249","59","54"
"041318","12:03:31","24129553","AMP_test","2","primeRace","101","5","12","23","1","172","60","54"
"041318","18:10:04","284817422","AMP_practice","1","primeNeutralpractice","4","0","0","18","1","5918","0","0"
"041318","18:10:04","284817422","AMP_practice","1","primeNeutralpractice","5","0","0","18","1","1570","0","0"
"041318","18:10:04","284817422","AMP_practice","1","primeNeutralpractice","6","0","0","23","1","893","0","0"
"041318","18:10:04","284817422","AMP_practice","1","primeNeutralpractice","7","0","0","23","1","611","0","0"
"041318","18:10:04","284817422","AMP_practice","1","primeRacepractice","8","0","0","18","1","757","0","0"
"041318","18:10:04","284817422","AMP_practice","1","primeNeutralpractice","9","0","0","23","1","493","0","0"
"041318","18:10:04","284817422","AMP_practice","1","primeRacepractice","10","0","0","23","0","531","0","0"
"041318","18:10:04","284817422","AMP_practice","1","primeRacepractice","11","0","0","23","0","392","0","0"
"041318","18:10:04","284817422","AMP_practice","1","primeRacepractice","12","0","0","23","0","583","0","0"
"041318","18:10:04","284817422","AMP_practice","1","primeRacepractice","13","0","0","18","1","662","0","0"
"041318","18:10:04","284817422","AMP_test","2","primeRace","2","4","4","23","1","1295","100","0"
"041318","18:10:04","284817422","AMP_test","2","primeNeutral","3","1","15","23","1","681","100","100"
"041318","18:10:04","284817422","AMP_test","2","primeNeutral","4","1","17","18","0","500","100","50"
"041318","18:10:04","284817422","AMP_test","2","primeRace","5","1","5","23","1","1054","100","50"
"041318","18:10:04","284817422","AMP_test","2","primeRace","6","5","10","23","1","1546","100","50"
"041318","18:10:04","284817422","AMP_test","2","primeRace","7","2","14","23","1","571","100","50"
"041318","18:10:04","284817422","AMP_test","2","primeRace","8","3","6","18","0","502","80","50"
"041318","18:10:04","284817422","AMP_test","2","primeNeutral","9","1","1","23","1","871","80","66"
"041318","18:10:04","284817422","AMP_test","2","primeNeutral","10","1","20","23","1","2611","80","75"
"041318","18:10:04","284817422","AMP_test","2","primeRace","11","6","7","18","0","957","66","75"
"041318","18:10:04","284817422","AMP_test","2","primeNeutral","12","1","4","18","0","917","66","60"
"041318","18:10:04","284817422","AMP_test","2","primeNeutral","13","1","18","23","1","694","66","66"
"041318","18:10:04","284817422","AMP_test","2","primeRace","14","4","5","18","0","964","57","66"
"041318","18:10:04","284817422","AMP_test","2","primeNeutral","15","1","8","23","1","524","57","71"
"041318","18:10:04","284817422","AMP_test","2","primeNeutral","16","1","17","23","1","586","57","75"
"041318","18:10:04","284817422","AMP_test","2","primeNeutral","17","1","15","18","0","520","57","66"
"041318","18:10:04","284817422","AMP_test","2","primeRace","18","6","1","23","1","956","62","66"
"041318","18:10:04","284817422","AMP_test","2","primeNeutral","19","1","20","18","0","612","62","60"
"041318","18:10:04","284817422","AMP_test","2","primeNeutral","20","1","3","23","1","502","62","63"
"041318","18:10:04","284817422","AMP_test","2","primeRace","21","1","13","23","1","480","66","63"
"041318","18:10:04","284817422","AMP_test","2","primeNeutral","22","1","12","23","1","1798","66","66"
"041318","18:10:04","284817422","AMP_test","2","primeNeutral","23","1","11","23","1","468","66","69"
"041318","18:10:04","284817422","AMP_test","2","primeNeutral","24","1","14","18","0","408","66","64"
"041318","18:10:04","284817422","AMP_test","2","primeNeutral","25","1","7","23","1","346","66","66"
"041318","18:10:04","284817422","AMP_test","2","primeNeutral","26","1","2","23","1","394","66","68"
"041318","18:10:04","284817422","AMP_test","2","primeNeutral","27","1","10","23","1","484","66","70"
"041318","18:10:04","284817422","AMP_test","2","primeRace","28","2","9","18","0","1146","60","70"
"041318","18:10:04","284817422","AMP_test","2","primeRace","29","4","16","23","1","783","63","70"
"041318","18:10:04","284817422","AMP_test","2","primeNeutral","30","1","19","23","1","402","63","72"
"041318","18:10:04","284817422","AMP_test","2","primeRace","31","5","6","18","0","947","58","72"
"041318","18:10:04","284817422","AMP_test","2","primeNeutral","32","1","6","23","1","392","58","73"
"041318","18:10:04","284817422","AMP_test","2","primeNeutral","33","1","19","23","1","839","58","75"
"041318","18:10:04","284817422","AMP_test","2","primeNeutral","34","1","15","18","0","379","58","71"
"041318","18:10:04","284817422","AMP_test","2","primeRace","35","3","4","23","1","674","61","71"
"041318","18:10:04","284817422","AMP_test","2","primeNeutral","36","1","11","23","1","2053","61","72"
"041318","18:10:04","284817422","AMP_test","2","primeRace","37","5","3","18","0","514","57","72"
"041318","18:10:04","284817422","AMP_test","2","primeRace","38","6","1","23","1","436","60","72"
"041318","18:10:04","284817422","AMP_test","2","primeRace","39","3","10","23","1","516","62","72"
"041318","18:10:04","284817422","AMP_test","2","primeNeutral","40","1","13","18","0","526","62","69"
"041318","18:10:04","284817422","AMP_test","2","primeNeutral","41","1","12","18","0","411","62","66"
"041318","18:10:04","284817422","AMP_test","2","primeRace","42","2","2","18","0","364","58","66"
"041318","18:10:04","284817422","AMP_test","2","primeNeutral","43","1","14","23","1","256","58","68"
"041318","18:10:04","284817422","AMP_test","2","primeNeutral","44","1","5","23","1","484","58","69"
"041318","18:10:04","284817422","AMP_test","2","primeNeutral","45","1","20","18","0","882","58","66"
"041318","18:10:04","284817422","AMP_test","2","primeNeutral","46","1","8","23","1","532","58","67"
"041318","18:10:04","284817422","AMP_test","2","primeRace","47","4","7","23","1","211","61","67"
"041318","18:10:04","284817422","AMP_test","2","primeNeutral","48","1","16","23","1","895","61","68"
"041318","18:10:04","284817422","AMP_test","2","primeRace","49","1","9","18","0","446","57","68"
"041318","18:10:04","284817422","AMP_test","2","primeRace","50","5","18","23","1","686","60","68"
"041318","18:10:04","284817422","AMP_test","2","primeRace","51","6","17","23","1","827","61","68"
"041318","18:10:04","284817422","AMP_test","2","primeNeutral","52","1","18","23","1","437","61","70"
"041318","18:10:04","284817422","AMP_test","2","primeRace","53","1","12","18","0","517","59","70"
"041318","18:10:04","284817422","AMP_test","2","primeRace","54","4","9","23","1","975","60","70"
"041318","18:10:04","284817422","AMP_test","2","primeNeutral","55","1","2","23","1","550","60","70"
"041318","18:10:04","284817422","AMP_test","2","primeNeutral","56","1","7","23","1","1046","60","71"
"041318","18:10:04","284817422","AMP_test","2","primeRace","57","2","1","18","0","1019","58","71"
"041318","18:10:04","284817422","AMP_test","2","primeNeutral","58","1","20","23","1","1893","58","72"
"041318","18:10:04","284817422","AMP_test","2","primeRace","59","3","17","23","1","579","60","72"
"041318","18:10:04","284817422","AMP_test","2","primeRace","60","6","8","23","1","1223","61","72"
"041318","18:10:04","284817422","AMP_test","2","primeNeutral","61","1","14","23","1","4013","61","73"
"041318","18:10:04","284817422","AMP_test","2","primeRace","62","1","15","23","1","859","62","73"
"041318","18:10:04","284817422","AMP_test","2","primeNeutral","63","1","6","18","0","1467","62","71"
"041318","18:10:04","284817422","AMP_test","2","primeNeutral","64","1","10","18","0","743","62","69"
"041318","18:10:04","284817422","AMP_test","2","primeRace","65","4","3","23","1","716","64","69"
"041318","18:10:04","284817422","AMP_test","2","primeRace","66","3","5","23","1","1669","65","69"
"041318","18:10:04","284817422","AMP_test","2","primeRace","67","2","11","23","1","640","66","69"
"041318","18:10:04","284817422","AMP_test","2","primeRace","68","5","13","23","1","181","67","69"
"041318","18:10:04","284817422","AMP_test","2","primeRace","69","5","19","23","1","500","68","69"
"041318","18:10:04","284817422","AMP_test","2","primeNeutral","70","1","16","23","1","510","68","70"
"041318","18:10:04","284817422","AMP_test","2","primeRace","71","1","4","18","0","400","66","70"
"041318","18:10:04","284817422","AMP_test","2","primeNeutral","72","1","1","23","1","569","66","71"
"041318","18:10:04","284817422","AMP_test","2","primeNeutral","73","1","15","23","1","613","66","71"
"041318","18:10:04","284817422","AMP_test","2","primeRace","74","2","18","23","1","551","67","71"
"041318","18:10:04","284817422","AMP_test","2","primeRace","75","4","8","23","1","991","68","71"
"041318","18:10:04","284817422","AMP_test","2","primeRace","76","3","12","23","1","393","69","71"
"041318","18:10:04","284817422","AMP_test","2","primeRace","77","6","4","23","1","1587","70","71"
"041318","18:10:04","284817422","AMP_test","2","primeNeutral","78","1","6","18","0","474","70","70"
"041318","18:10:04","284817422","AMP_test","2","primeRace","79","4","10","18","0","469","68","70"
"041318","18:10:04","284817422","AMP_test","2","primeNeutral","80","1","20","18","0","665","68","68"
"041318","18:10:04","284817422","AMP_test","2","primeNeutral","81","1","16","23","1","692","68","69"
"041318","18:10:04","284817422","AMP_test","2","primeRace","82","3","14","23","1","386","69","69"
"041318","18:10:04","284817422","AMP_test","2","primeRace","83","5","7","23","1","105","70","69"
"041318","18:10:04","284817422","AMP_test","2","primeNeutral","84","1","9","23","1","397","70","69"
"041318","18:10:04","284817422","AMP_test","2","primeRace","85","2","3","23","1","192","70","69"
"041318","18:10:04","284817422","AMP_test","2","primeNeutral","86","1","11","18","0","298","70","68"
"041318","18:10:04","284817422","AMP_test","2","primeRace","87","6","19","23","1","356","71","68"
"041318","18:10:04","284817422","AMP_test","2","primeNeutral","88","1","17","23","1","352","71","68"
"041318","18:10:04","284817422","AMP_test","2","primeRace","89","1","2","23","1","299","72","68"
"041318","18:10:04","284817422","AMP_test","2","primeNeutral","90","1","5","23","1","300","72","69"
"041318","18:10:04","284817422","AMP_test","2","primeRace","91","6","13","23","1","165","72","69"
"041318","18:10:04","284817422","AMP_test","2","primeNeutral","92","1","2","23","1","238","72","70"
"041318","18:10:04","284817422","AMP_test","2","primeRace","93","4","12","23","1","157","73","70"
"041318","18:10:04","284817422","AMP_test","2","primeNeutral","94","1","18","23","1","386","73","70"
"041318","18:10:04","284817422","AMP_test","2","primeRace","95","5","14","18","0","441","71","70"
"041318","18:10:04","284817422","AMP_test","2","primeRace","96","2","19","23","1","377","72","70"
"041318","18:10:04","284817422","AMP_test","2","primeRace","97","1","10","23","1","455","72","70"
"041318","18:10:04","284817422","AMP_test","2","primeRace","98","3","13","18","0","274","71","70"
"041318","18:10:04","284817422","AMP_test","2","primeRace","99","4","3","18","0","424","70","70"
"041318","18:10:04","284817422","AMP_test","2","primeNeutral","100","1","15","23","1","653","70","71"
"041318","18:10:04","284817422","AMP_test","2","primeNeutral","101","1","1","23","1","526","70","72"
"041318","18:11:00","213541838","AMP_practice","1","primeRacepractice","4","0","0","18","1","6134","0","0"
"041318","18:11:00","213541838","AMP_practice","1","primeRacepractice","5","0","0","23","0","950","0","0"
"041318","18:11:00","213541838","AMP_practice","1","primeNeutralpractice","6","0","0","23","1","1277","0","0"
"041318","18:11:00","213541838","AMP_practice","1","primeNeutralpractice","7","0","0","23","1","1288","0","0"
"041318","18:11:00","213541838","AMP_practice","1","primeRacepractice","8","0","0","18","1","1618","0","0"
"041318","18:11:00","213541838","AMP_practice","1","primeNeutralpractice","9","0","0","23","1","1759","0","0"
"041318","18:11:00","213541838","AMP_practice","1","primeNeutralpractice","10","0","0","23","1","1678","0","0"
"041318","18:11:00","213541838","AMP_practice","1","primeNeutralpractice","11","0","0","18","1","2361","0","0"
"041318","18:11:00","213541838","AMP_practice","1","primeRacepractice","12","0","0","23","0","1449","0","0"
"041318","18:11:00","213541838","AMP_practice","1","primeRacepractice","13","0","0","23","0","3236","0","0"
"041318","18:11:00","213541838","AMP_test","2","primeRace","2","1","15","23","1","1223","100","0"
"041318","18:11:00","213541838","AMP_test","2","primeNeutral","3","1","4","18","0","1348","100","0"
"041318","18:11:00","213541838","AMP_test","2","primeRace","4","2","3","18","0","1364","50","0"
"041318","18:11:00","213541838","AMP_test","2","primeRace","5","4","6","23","1","1331","66","0"
"041318","18:11:00","213541838","AMP_test","2","primeNeutral","6","1","10","23","1","804","66","50"
"041318","18:11:00","213541838","AMP_test","2","primeNeutral","7","1","7","23","1","1161","66","66"
"041318","18:11:00","213541838","AMP_test","2","primeRace","8","6","18","18","0","849","50","66"
"041318","18:11:00","213541838","AMP_test","2","primeNeutral","9","1","9","18","0","836","50","50"
"041318","18:11:00","213541838","AMP_test","2","primeRace","10","1","13","23","1","856","60","50"
"041318","18:11:00","213541838","AMP_test","2","primeRace","11","3","5","23","1","803","66","50"
"041318","18:11:00","213541838","AMP_test","2","primeNeutral","12","1","9","18","0","1297","66","40"
"041318","18:11:00","213541838","AMP_test","2","primeRace","13","5","12","23","1","1187","71","40"
"041318","18:11:00","213541838","AMP_test","2","primeNeutral","14","1","20","23","1","753","71","50"
"041318","18:11:00","213541838","AMP_test","2","primeRace","15","2","8","23","1","1216","75","50"
"041318","18:11:00","213541838","AMP_test","2","primeNeutral","16","1","2","23","1","965","75","57"
"041318","18:11:00","213541838","AMP_test","2","primeNeutral","17","1","18","23","1","1420","75","62"
"041318","18:11:00","213541838","AMP_test","2","primeRace","18","1","16","18","0","953","66","62"
"041318","18:11:00","213541838","AMP_test","2","primeNeutral","19","1","11","18","0","1000","66","55"
"041318","18:11:00","213541838","AMP_test","2","primeRace","20","5","5","18","0","1005","60","55"
"041318","18:11:00","213541838","AMP_test","2","primeRace","21","4","6","18","0","1595","54","55"
"041318","18:11:00","213541838","AMP_test","2","primeRace","22","3","15","23","1","1409","58","55"
"041318","18:11:00","213541838","AMP_test","2","primeNeutral","23","1","7","23","1","1182","58","60"
"041318","18:11:00","213541838","AMP_test","2","primeNeutral","24","1","3","23","1","1837","58","63"
"041318","18:11:00","213541838","AMP_test","2","primeNeutral","25","1","14","23","1","1649","58","66"
"041318","18:11:00","213541838","AMP_test","2","primeRace","26","6","4","18","0","1461","53","66"
"041318","18:11:00","213541838","AMP_test","2","primeRace","27","6","10","23","1","672","57","66"
"041318","18:11:00","213541838","AMP_test","2","primeNeutral","28","1","13","18","0","1315","57","61"
"041318","18:11:00","213541838","AMP_test","2","primeRace","29","4","19","23","1","996","60","61"
"041318","18:11:00","213541838","AMP_test","2","primeRace","30","1","17","23","1","1026","62","61"
"041318","18:11:00","213541838","AMP_test","2","primeRace","31","5","1","18","0","1047","58","61"
"041318","18:11:00","213541838","AMP_test","2","primeRace","32","2","19","23","1","970","61","61"
"041318","18:11:00","213541838","AMP_test","2","primeRace","33","3","4","23","1","1466","63","61"
"041318","18:11:00","213541838","AMP_test","2","primeNeutral","34","1","10","18","0","780","63","57"
"041318","18:11:00","213541838","AMP_test","2","primeNeutral","35","1","13","23","1","1243","63","60"
"041318","18:11:00","213541838","AMP_test","2","primeRace","36","1","14","23","1","999","65","60"
"041318","18:11:00","213541838","AMP_test","2","primeRace","37","4","20","23","1","980","66","60"
"041318","18:11:00","213541838","AMP_test","2","primeRace","38","2","6","18","0","907","63","60"
"041318","18:11:00","213541838","AMP_test","2","primeNeutral","39","1","5","18","0","1053","63","56"
"041318","18:11:00","213541838","AMP_test","2","primeNeutral","40","1","2","18","0","1152","63","52"
"041318","18:11:00","213541838","AMP_test","2","primeNeutral","41","1","16","23","1","719","63","55"
"041318","18:11:00","213541838","AMP_test","2","primeRace","42","3","18","23","1","808","65","55"
"041318","18:11:00","213541838","AMP_test","2","primeRace","43","5","7","18","0","965","62","55"
"041318","18:11:00","213541838","AMP_test","2","primeNeutral","44","1","15","23","1","836","62","57"
"041318","18:11:00","213541838","AMP_test","2","primeNeutral","45","1","3","18","0","1137","62","55"
"041318","18:11:00","213541838","AMP_test","2","primeNeutral","46","1","12","18","0","1001","62","52"
"041318","18:11:00","213541838","AMP_test","2","primeNeutral","47","1","11","18","0","1142","62","50"
"041318","18:11:00","213541838","AMP_test","2","primeNeutral","48","1","8","18","0","1718","62","47"
"041318","18:11:00","213541838","AMP_test","2","primeNeutral","49","1","1","23","1","879","62","50"
"041318","18:11:00","213541838","AMP_test","2","primeRace","50","6","17","18","0","1090","60","50"
"041318","18:11:00","213541838","AMP_test","2","primeNeutral","51","1","9","18","0","2980","60","48"
"041318","18:11:00","213541838","AMP_test","2","primeRace","52","5","8","23","1","1266","61","48"
"041318","18:11:00","213541838","AMP_test","2","primeNeutral","53","1","9","18","0","741","61","46"
"041318","18:11:00","213541838","AMP_test","2","primeRace","54","3","12","18","0","917","59","46"
"041318","18:11:00","213541838","AMP_test","2","primeNeutral","55","1","11","18","0","942","59","44"
"041318","18:11:00","213541838","AMP_test","2","primeNeutral","56","1","6","23","1","1342","59","46"
"041318","18:11:00","213541838","AMP_test","2","primeNeutral","57","1","14","23","1","822","59","48"
"041318","18:11:00","213541838","AMP_test","2","primeRace","58","6","19","23","1","811","60","48"
"041318","18:11:00","213541838","AMP_test","2","primeRace","59","2","18","18","0","1224","58","48"
"041318","18:11:00","213541838","AMP_test","2","primeRace","60","4","10","23","1","1725","60","48"
"041318","18:11:00","213541838","AMP_test","2","primeRace","61","1","7","18","0","1941","58","48"
"041318","18:11:00","213541838","AMP_test","2","primeRace","62","1","1","23","1","1941","59","48"
"041318","18:11:00","213541838","AMP_test","2","primeRace","63","6","15","23","1","2574","60","48"
"041318","18:11:00","213541838","AMP_test","2","primeNeutral","64","1","3","18","0","924","60","46"
"041318","18:11:00","213541838","AMP_test","2","primeNeutral","65","1","5","23","1","1053","60","48"
"041318","18:11:00","213541838","AMP_test","2","primeRace","66","4","4","23","1","1360","61","48"
"041318","18:11:00","213541838","AMP_test","2","primeNeutral","67","1","20","18","0","1248","61","46"
"041318","18:11:00","213541838","AMP_test","2","primeNeutral","68","1","17","18","0","2620","61","45"
"041318","18:11:00","213541838","AMP_test","2","primeNeutral","69","1","16","23","1","1168","61","47"
"041318","18:11:00","213541838","AMP_test","2","primeNeutral","70","1","13","23","1","1319","61","48"
"041318","18:11:00","213541838","AMP_test","2","primeNeutral","71","1","2","18","0","992","61","47"
"041318","18:11:00","213541838","AMP_test","2","primeNeutral","72","1","13","18","0","1574","61","45"
"041318","18:11:00","213541838","AMP_test","2","primeNeutral","73","1","2","23","1","1133","61","47"
"041318","18:11:00","213541838","AMP_test","2","primeRace","74","5","12","23","1","1900","62","47"
"041318","18:11:00","213541838","AMP_test","2","primeNeutral","75","1","14","18","0","1462","62","46"
"041318","18:11:00","213541838","AMP_test","2","primeNeutral","76","1","5","18","0","1169","62","45"
"041318","18:11:00","213541838","AMP_test","2","primeRace","77","3","11","18","0","888","61","45"
"041318","18:11:00","213541838","AMP_test","2","primeRace","78","2","7","23","1","722","62","45"
"041318","18:11:00","213541838","AMP_test","2","primeRace","79","6","15","23","1","787","63","45"
"041318","18:11:00","213541838","AMP_test","2","primeNeutral","80","1","8","23","1","1497","63","46"
"041318","18:11:00","213541838","AMP_test","2","primeRace","81","1","4","23","1","803","64","46"
"041318","18:11:00","213541838","AMP_test","2","primeRace","82","4","9","18","0","1064","62","46"
"041318","18:11:00","213541838","AMP_test","2","primeRace","83","3","1","23","1","772","63","46"
"041318","18:11:00","213541838","AMP_test","2","primeNeutral","84","1","17","18","0","874","63","45"
"041318","18:11:00","213541838","AMP_test","2","primeNeutral","85","1","16","23","1","677","63","46"
"041318","18:11:00","213541838","AMP_test","2","primeNeutral","86","1","19","23","1","760","63","47"
"041318","18:11:00","213541838","AMP_test","2","primeNeutral","87","1","3","23","1","1015","63","48"
"041318","18:11:00","213541838","AMP_test","2","primeRace","88","2","20","23","1","821","64","48"
"041318","18:11:00","213541838","AMP_test","2","primeRace","89","5","6","18","0","993","62","48"
"041318","18:11:00","213541838","AMP_test","2","primeRace","90","2","10","23","1","1135","63","48"
"041318","18:11:00","213541838","AMP_test","2","primeRace","91","1","18","23","1","679","64","48"
"041318","18:11:00","213541838","AMP_test","2","primeNeutral","92","1","1","23","1","1322","64","50"
"041318","18:11:00","213541838","AMP_test","2","primeRace","93","3","6","18","0","571","63","50"
"041318","18:11:00","213541838","AMP_test","2","primeRace","94","4","15","18","0","849","61","50"
"041318","18:11:00","213541838","AMP_test","2","primeRace","95","5","13","23","1","1037","62","50"
"041318","18:11:00","213541838","AMP_test","2","primeRace","96","6","10","18","0","665","61","50"
