"date","time","group","subject","build","blocknum","trialnum","blockcode","trialcode","pretrialpause","posttrialpause","windowcenter","trialduration","trialtimeout","blocktimeout","response","correct","latency","inwindow","stimulusnumber1","stimulusitem1","stimulusvpos1","stimulushpos1","stimulusonset1","stimulusnumber2","stimulusitem2","stimulusvpos2","stimulushpos2","stimulusonset2"
"041318","17:44:57","6","867752673","4.0.10.0","1","1","debriefing","debriefing","0","0","0","0","0","0","Ctrl+'B'","1","4094","0","1","DEBRIEFING  If you're interested in the purpose of the study you can read here.  Otherwise, press SPACEBAR to finish.  Heisenburg's observer problem in physics refers to the idea that,  by measuring something we sometimes change the thing we are  interested in measuring. This also applies in many areas of  psychology. One of the reaction time tasks you completed (the  Implicit Association Test) is often used as a measure of implicit  racial bias. In this experiment, we are examining whether the act  of completing a race IAT serves to change the racial biases it  seeks to measure. This may have implications for the interpretation and use of these measures in the future.","15","10","994","1","Press spacebar to finish","90","50","994"
"041318","17:15:31","2","905831587","4.0.10.0","1","1","debriefing","debriefing","0","0","0","0","0","0","57","0","27103","0","1","DEBRIEFING  If you're interested in the purpose of the study you can read here.  Otherwise, press SPACEBAR to finish.  Heisenburg's observer problem in physics refers to the idea that,  by measuring something we sometimes change the thing we are  interested in measuring. This also applies in many areas of  psychology. One of the reaction time tasks you completed (the  Implicit Association Test) is often used as a measure of implicit  racial bias. In this experiment, we are examining whether the act  of completing a race IAT serves to change the racial biases it  seeks to measure. This may have implications for the interpretation and use of these measures in the future.","15","10","1009","1","Press spacebar to finish","90","50","1009"
"041318","17:29:41","7","767115399","4.0.10.0","1","1","debriefing","debriefing","0","0","0","0","0","0","57","0","18851","0","1","DEBRIEFING  If you're interested in the purpose of the study you can read here.  Otherwise, press SPACEBAR to finish.  Heisenburg's observer problem in physics refers to the idea that,  by measuring something we sometimes change the thing we are  interested in measuring. This also applies in many areas of  psychology. One of the reaction time tasks you completed (the  Implicit Association Test) is often used as a measure of implicit  racial bias. In this experiment, we are examining whether the act  of completing a race IAT serves to change the racial biases it  seeks to measure. This may have implications for the interpretation and use of these measures in the future.","15","10","999","1","Press spacebar to finish","90","50","999"
"041318","17:35:15","6","830748203","4.0.10.0","1","1","debriefing","debriefing","0","0","0","0","0","0","57","0","18141","0","1","DEBRIEFING  If you're interested in the purpose of the study you can read here.  Otherwise, press SPACEBAR to finish.  Heisenburg's observer problem in physics refers to the idea that,  by measuring something we sometimes change the thing we are  interested in measuring. This also applies in many areas of  psychology. One of the reaction time tasks you completed (the  Implicit Association Test) is often used as a measure of implicit  racial bias. In this experiment, we are examining whether the act  of completing a race IAT serves to change the racial biases it  seeks to measure. This may have implications for the interpretation and use of these measures in the future.","15","10","999","1","Press spacebar to finish","90","50","999"
"041318","13:00:11","1","231421624","4.0.10.0","1","1","debriefing","debriefing","0","0","0","0","0","0","57","0","1207","0","1","DEBRIEFING  If you're interested in the purpose of the study you can read here.  Otherwise, press SPACEBAR to finish.  Heisenburg's observer problem in physics refers to the idea that,  by measuring something we sometimes change the thing we are  interested in measuring. This also applies in many areas of  psychology. One of the reaction time tasks you completed (the  Implicit Association Test) is often used as a measure of implicit  racial bias. In this experiment, we are examining whether the act  of completing a race IAT serves to change the racial biases it  seeks to measure. This may have implications for the interpretation and use of these measures in the future.","15","10","1001","1","Press spacebar to finish","90","50","1001"
"041318","13:00:13","4","755961286","4.0.10.0","1","1","debriefing","debriefing","0","0","0","0","0","0","57","0","4318","0","1","DEBRIEFING  If you're interested in the purpose of the study you can read here.  Otherwise, press SPACEBAR to finish.  Heisenburg's observer problem in physics refers to the idea that,  by measuring something we sometimes change the thing we are  interested in measuring. This also applies in many areas of  psychology. One of the reaction time tasks you completed (the  Implicit Association Test) is often used as a measure of implicit  racial bias. In this experiment, we are examining whether the act  of completing a race IAT serves to change the racial biases it  seeks to measure. This may have implications for the interpretation and use of these measures in the future.","15","10","999","1","Press spacebar to finish","90","50","999"
"041318","10:02:59","7","442057301","4.0.10.0","1","1","debriefing","debriefing","0","0","0","0","0","0","57","0","8987","0","1","DEBRIEFING  If you're interested in the purpose of the study you can read here.  Otherwise, press SPACEBAR to finish.  Heisenburg's observer problem in physics refers to the idea that,  by measuring something we sometimes change the thing we are  interested in measuring. This also applies in many areas of  psychology. One of the reaction time tasks you completed (the  Implicit Association Test) is often used as a measure of implicit  racial bias. In this experiment, we are examining whether the act  of completing a race IAT serves to change the racial biases it  seeks to measure. This may have implications for the interpretation and use of these measures in the future.","15","10","999","1","Press spacebar to finish","90","50","999"
"041318","12:06:00","6","24129553","4.0.10.0","1","1","debriefing","debriefing","0","0","0","0","0","0","57","0","1218","0","1","DEBRIEFING  If you're interested in the purpose of the study you can read here.  Otherwise, press SPACEBAR to finish.  Heisenburg's observer problem in physics refers to the idea that,  by measuring something we sometimes change the thing we are  interested in measuring. This also applies in many areas of  psychology. One of the reaction time tasks you completed (the  Implicit Association Test) is often used as a measure of implicit  racial bias. In this experiment, we are examining whether the act  of completing a race IAT serves to change the racial biases it  seeks to measure. This may have implications for the interpretation and use of these measures in the future.","15","10","999","1","Press spacebar to finish","90","50","999"
"041318","18:14:45","8","284817422","4.0.10.0","1","1","debriefing","debriefing","0","0","0","0","0","0","57","0","6516","0","1","DEBRIEFING  If you're interested in the purpose of the study you can read here.  Otherwise, press SPACEBAR to finish.  Heisenburg's observer problem in physics refers to the idea that,  by measuring something we sometimes change the thing we are  interested in measuring. This also applies in many areas of  psychology. One of the reaction time tasks you completed (the  Implicit Association Test) is often used as a measure of implicit  racial bias. In this experiment, we are examining whether the act  of completing a race IAT serves to change the racial biases it  seeks to measure. This may have implications for the interpretation and use of these measures in the future.","15","10","999","1","Press spacebar to finish","90","50","999"
"041318","18:16:48","2","213541838","4.0.10.0","1","1","debriefing","debriefing","0","0","0","0","0","0","57","0","32089","0","1","DEBRIEFING  If you're interested in the purpose of the study you can read here.  Otherwise, press SPACEBAR to finish.  Heisenburg's observer problem in physics refers to the idea that,  by measuring something we sometimes change the thing we are  interested in measuring. This also applies in many areas of  psychology. One of the reaction time tasks you completed (the  Implicit Association Test) is often used as a measure of implicit  racial bias. In this experiment, we are examining whether the act  of completing a race IAT serves to change the racial biases it  seeks to measure. This may have implications for the interpretation and use of these measures in the future.","15","10","999","1","Press spacebar to finish","90","50","999"
"041318","13:20:44","2","278872382","4.0.10.0","1","1","debriefing","debriefing","0","0","0","0","0","0","57","0","4623","0","1","DEBRIEFING  If you're interested in the purpose of the study you can read here.  Otherwise, press SPACEBAR to finish.  Heisenburg's observer problem in physics refers to the idea that,  by measuring something we sometimes change the thing we are  interested in measuring. This also applies in many areas of  psychology. One of the reaction time tasks you completed (the  Implicit Association Test) is often used as a measure of implicit  racial bias. In this experiment, we are examining whether the act  of completing a race IAT serves to change the racial biases it  seeks to measure. This may have implications for the interpretation and use of these measures in the future.","15","10","999","1","Press spacebar to finish","90","50","999"
"041318","18:20:28","3","650179091","4.0.10.0","1","1","debriefing","debriefing","0","0","0","0","0","0","57","0","15453","0","1","DEBRIEFING  If you're interested in the purpose of the study you can read here.  Otherwise, press SPACEBAR to finish.  Heisenburg's observer problem in physics refers to the idea that,  by measuring something we sometimes change the thing we are  interested in measuring. This also applies in many areas of  psychology. One of the reaction time tasks you completed (the  Implicit Association Test) is often used as a measure of implicit  racial bias. In this experiment, we are examining whether the act  of completing a race IAT serves to change the racial biases it  seeks to measure. This may have implications for the interpretation and use of these measures in the future.","15","10","999","1","Press spacebar to finish","90","50","999"
"041318","18:22:13","7","209849636","4.0.10.0","1","1","debriefing","debriefing","0","0","0","0","0","0","57","0","22049","0","1","DEBRIEFING  If you're interested in the purpose of the study you can read here.  Otherwise, press SPACEBAR to finish.  Heisenburg's observer problem in physics refers to the idea that,  by measuring something we sometimes change the thing we are  interested in measuring. This also applies in many areas of  psychology. One of the reaction time tasks you completed (the  Implicit Association Test) is often used as a measure of implicit  racial bias. In this experiment, we are examining whether the act  of completing a race IAT serves to change the racial biases it  seeks to measure. This may have implications for the interpretation and use of these measures in the future.","15","10","999","1","Press spacebar to finish","90","50","999"
"041318","18:27:02","5","436533122","4.0.10.0","1","1","debriefing","debriefing","0","0","0","0","0","0","57","0","10419","0","1","DEBRIEFING  If you're interested in the purpose of the study you can read here.  Otherwise, press SPACEBAR to finish.  Heisenburg's observer problem in physics refers to the idea that,  by measuring something we sometimes change the thing we are  interested in measuring. This also applies in many areas of  psychology. One of the reaction time tasks you completed (the  Implicit Association Test) is often used as a measure of implicit  racial bias. In this experiment, we are examining whether the act  of completing a race IAT serves to change the racial biases it  seeks to measure. This may have implications for the interpretation and use of these measures in the future.","15","10","999","1","Press spacebar to finish","90","50","999"
"041318","13:27:17","1","308675497","4.0.10.0","1","1","debriefing","debriefing","0","0","0","0","0","0","57","0","4264","0","1","DEBRIEFING  If you're interested in the purpose of the study you can read here.  Otherwise, press SPACEBAR to finish.  Heisenburg's observer problem in physics refers to the idea that,  by measuring something we sometimes change the thing we are  interested in measuring. This also applies in many areas of  psychology. One of the reaction time tasks you completed (the  Implicit Association Test) is often used as a measure of implicit  racial bias. In this experiment, we are examining whether the act  of completing a race IAT serves to change the racial biases it  seeks to measure. This may have implications for the interpretation and use of these measures in the future.","15","10","999","1","Press spacebar to finish","90","50","999"
"041318","18:29:55","7","39920667","4.0.10.0","1","1","debriefing","debriefing","0","0","0","0","0","0","57","0","27912","0","1","DEBRIEFING  If you're interested in the purpose of the study you can read here.  Otherwise, press SPACEBAR to finish.  Heisenburg's observer problem in physics refers to the idea that,  by measuring something we sometimes change the thing we are  interested in measuring. This also applies in many areas of  psychology. One of the reaction time tasks you completed (the  Implicit Association Test) is often used as a measure of implicit  racial bias. In this experiment, we are examining whether the act  of completing a race IAT serves to change the racial biases it  seeks to measure. This may have implications for the interpretation and use of these measures in the future.","15","10","1002","1","Press spacebar to finish","90","50","1002"
"041318","12:32:20","2","86938792","4.0.10.0","1","1","debriefing","debriefing","0","0","0","0","0","0","57","0","17312","0","1","DEBRIEFING  If you're interested in the purpose of the study you can read here.  Otherwise, press SPACEBAR to finish.  Heisenburg's observer problem in physics refers to the idea that,  by measuring something we sometimes change the thing we are  interested in measuring. This also applies in many areas of  psychology. One of the reaction time tasks you completed (the  Implicit Association Test) is often used as a measure of implicit  racial bias. In this experiment, we are examining whether the act  of completing a race IAT serves to change the racial biases it  seeks to measure. This may have implications for the interpretation and use of these measures in the future.","15","10","999","1","Press spacebar to finish","90","50","999"
"041318","13:34:21","7","711210983","4.0.10.0","1","1","debriefing","debriefing","0","0","0","0","0","0","57","0","31483","0","1","DEBRIEFING  If you're interested in the purpose of the study you can read here.  Otherwise, press SPACEBAR to finish.  Heisenburg's observer problem in physics refers to the idea that,  by measuring something we sometimes change the thing we are  interested in measuring. This also applies in many areas of  psychology. One of the reaction time tasks you completed (the  Implicit Association Test) is often used as a measure of implicit  racial bias. In this experiment, we are examining whether the act  of completing a race IAT serves to change the racial biases it  seeks to measure. This may have implications for the interpretation and use of these measures in the future.","15","10","999","1","Press spacebar to finish","90","50","999"
"041318","13:34:58","5","855240671","4.0.10.0","1","1","debriefing","debriefing","0","0","0","0","0","0","57","0","3786","0","1","DEBRIEFING  If you're interested in the purpose of the study you can read here.  Otherwise, press SPACEBAR to finish.  Heisenburg's observer problem in physics refers to the idea that,  by measuring something we sometimes change the thing we are  interested in measuring. This also applies in many areas of  psychology. One of the reaction time tasks you completed (the  Implicit Association Test) is often used as a measure of implicit  racial bias. In this experiment, we are examining whether the act  of completing a race IAT serves to change the racial biases it  seeks to measure. This may have implications for the interpretation and use of these measures in the future.","15","10","999","1","Press spacebar to finish","90","50","999"
"041318","12:34:38","1","766903329","4.0.10.0","1","1","debriefing","debriefing","0","0","0","0","0","0","57","0","25770","0","1","DEBRIEFING  If you're interested in the purpose of the study you can read here.  Otherwise, press SPACEBAR to finish.  Heisenburg's observer problem in physics refers to the idea that,  by measuring something we sometimes change the thing we are  interested in measuring. This also applies in many areas of  psychology. One of the reaction time tasks you completed (the  Implicit Association Test) is often used as a measure of implicit  racial bias. In this experiment, we are examining whether the act  of completing a race IAT serves to change the racial biases it  seeks to measure. This may have implications for the interpretation and use of these measures in the future.","15","10","999","1","Press spacebar to finish","90","50","999"
"041318","13:37:46","8","530436433","4.0.10.0","1","1","debriefing","debriefing","0","0","0","0","0","0","57","0","3703","0","1","DEBRIEFING  If you're interested in the purpose of the study you can read here.  Otherwise, press SPACEBAR to finish.  Heisenburg's observer problem in physics refers to the idea that,  by measuring something we sometimes change the thing we are  interested in measuring. This also applies in many areas of  psychology. One of the reaction time tasks you completed (the  Implicit Association Test) is often used as a measure of implicit  racial bias. In this experiment, we are examining whether the act  of completing a race IAT serves to change the racial biases it  seeks to measure. This may have implications for the interpretation and use of these measures in the future.","15","10","1000","1","Press spacebar to finish","90","50","1000"
"041318","10:38:40","3","426592903","4.0.10.0","1","1","debriefing","debriefing","0","0","0","0","0","0","57","0","4249","0","1","DEBRIEFING  If you're interested in the purpose of the study you can read here.  Otherwise, press SPACEBAR to finish.  Heisenburg's observer problem in physics refers to the idea that,  by measuring something we sometimes change the thing we are  interested in measuring. This also applies in many areas of  psychology. One of the reaction time tasks you completed (the  Implicit Association Test) is often used as a measure of implicit  racial bias. In this experiment, we are examining whether the act  of completing a race IAT serves to change the racial biases it  seeks to measure. This may have implications for the interpretation and use of these measures in the future.","15","10","991","1","Press spacebar to finish","90","50","991"
"041318","13:39:55","8","998555993","4.0.10.0","1","1","debriefing","debriefing","0","0","0","0","0","0","57","0","582","0","1","DEBRIEFING  If you're interested in the purpose of the study you can read here.  Otherwise, press SPACEBAR to finish.  Heisenburg's observer problem in physics refers to the idea that,  by measuring something we sometimes change the thing we are  interested in measuring. This also applies in many areas of  psychology. One of the reaction time tasks you completed (the  Implicit Association Test) is often used as a measure of implicit  racial bias. In this experiment, we are examining whether the act  of completing a race IAT serves to change the racial biases it  seeks to measure. This may have implications for the interpretation and use of these measures in the future.","15","10","999","1","Press spacebar to finish","90","50","999"
"041318","12:40:25","1","416358122","4.0.10.0","1","1","debriefing","debriefing","0","0","0","0","0","0","57","0","2220","0","1","DEBRIEFING  If you're interested in the purpose of the study you can read here.  Otherwise, press SPACEBAR to finish.  Heisenburg's observer problem in physics refers to the idea that,  by measuring something we sometimes change the thing we are  interested in measuring. This also applies in many areas of  psychology. One of the reaction time tasks you completed (the  Implicit Association Test) is often used as a measure of implicit  racial bias. In this experiment, we are examining whether the act  of completing a race IAT serves to change the racial biases it  seeks to measure. This may have implications for the interpretation and use of these measures in the future.","15","10","999","1","Press spacebar to finish","90","50","999"
"041318","18:41:36","2","601961149","4.0.10.0","1","1","debriefing","debriefing","0","0","0","0","0","0","57","0","22808","0","1","DEBRIEFING  If you're interested in the purpose of the study you can read here.  Otherwise, press SPACEBAR to finish.  Heisenburg's observer problem in physics refers to the idea that,  by measuring something we sometimes change the thing we are  interested in measuring. This also applies in many areas of  psychology. One of the reaction time tasks you completed (the  Implicit Association Test) is often used as a measure of implicit  racial bias. In this experiment, we are examining whether the act  of completing a race IAT serves to change the racial biases it  seeks to measure. This may have implications for the interpretation and use of these measures in the future.","15","10","991","1","Press spacebar to finish","90","50","991"
"041318","18:43:02","4","145924742","4.0.10.0","1","1","debriefing","debriefing","0","0","0","0","0","0","57","0","15186","0","1","DEBRIEFING  If you're interested in the purpose of the study you can read here.  Otherwise, press SPACEBAR to finish.  Heisenburg's observer problem in physics refers to the idea that,  by measuring something we sometimes change the thing we are  interested in measuring. This also applies in many areas of  psychology. One of the reaction time tasks you completed (the  Implicit Association Test) is often used as a measure of implicit  racial bias. In this experiment, we are examining whether the act  of completing a race IAT serves to change the racial biases it  seeks to measure. This may have implications for the interpretation and use of these measures in the future.","15","10","991","1","Press spacebar to finish","90","50","991"
"041318","18:44:36","5","236853641","4.0.10.0","1","1","debriefing","debriefing","0","0","0","0","0","0","57","0","8119","0","1","DEBRIEFING  If you're interested in the purpose of the study you can read here.  Otherwise, press SPACEBAR to finish.  Heisenburg's observer problem in physics refers to the idea that,  by measuring something we sometimes change the thing we are  interested in measuring. This also applies in many areas of  psychology. One of the reaction time tasks you completed (the  Implicit Association Test) is often used as a measure of implicit  racial bias. In this experiment, we are examining whether the act  of completing a race IAT serves to change the racial biases it  seeks to measure. This may have implications for the interpretation and use of these measures in the future.","15","10","999","1","Press spacebar to finish","90","50","999"
"041318","10:48:42","2","972375767","4.0.10.0","1","1","debriefing","debriefing","0","0","0","0","0","0","57","0","7767","0","1","DEBRIEFING  If you're interested in the purpose of the study you can read here.  Otherwise, press SPACEBAR to finish.  Heisenburg's observer problem in physics refers to the idea that,  by measuring something we sometimes change the thing we are  interested in measuring. This also applies in many areas of  psychology. One of the reaction time tasks you completed (the  Implicit Association Test) is often used as a measure of implicit  racial bias. In this experiment, we are examining whether the act  of completing a race IAT serves to change the racial biases it  seeks to measure. This may have implications for the interpretation and use of these measures in the future.","15","10","1002","1","Press spacebar to finish","90","50","1002"
"041318","12:54:12","8","878482895","4.0.10.0","1","1","debriefing","debriefing","0","0","0","0","0","0","57","0","22480","0","1","DEBRIEFING  If you're interested in the purpose of the study you can read here.  Otherwise, press SPACEBAR to finish.  Heisenburg's observer problem in physics refers to the idea that,  by measuring something we sometimes change the thing we are  interested in measuring. This also applies in many areas of  psychology. One of the reaction time tasks you completed (the  Implicit Association Test) is often used as a measure of implicit  racial bias. In this experiment, we are examining whether the act  of completing a race IAT serves to change the racial biases it  seeks to measure. This may have implications for the interpretation and use of these measures in the future.","15","10","1036","1","Press spacebar to finish","90","50","1036"
"041318","12:57:16","6","527775144","4.0.10.0","1","1","debriefing","debriefing","0","0","0","0","0","0","57","0","8110","0","1","DEBRIEFING  If you're interested in the purpose of the study you can read here.  Otherwise, press SPACEBAR to finish.  Heisenburg's observer problem in physics refers to the idea that,  by measuring something we sometimes change the thing we are  interested in measuring. This also applies in many areas of  psychology. One of the reaction time tasks you completed (the  Implicit Association Test) is often used as a measure of implicit  racial bias. In this experiment, we are examining whether the act  of completing a race IAT serves to change the racial biases it  seeks to measure. This may have implications for the interpretation and use of these measures in the future.","15","10","999","1","Press spacebar to finish","90","50","999"
"041318","14:03:12","1","389159334","4.0.10.0","1","1","debriefing","debriefing","0","0","0","0","0","0","57","0","3314","0","1","DEBRIEFING  If you're interested in the purpose of the study you can read here.  Otherwise, press SPACEBAR to finish.  Heisenburg's observer problem in physics refers to the idea that,  by measuring something we sometimes change the thing we are  interested in measuring. This also applies in many areas of  psychology. One of the reaction time tasks you completed (the  Implicit Association Test) is often used as a measure of implicit  racial bias. In this experiment, we are examining whether the act  of completing a race IAT serves to change the racial biases it  seeks to measure. This may have implications for the interpretation and use of these measures in the future.","15","10","1006","1","Press spacebar to finish","90","50","1006"
"041318","19:04:58","3","854706704","4.0.10.0","1","1","debriefing","debriefing","0","0","0","0","0","0","57","0","15574","0","1","DEBRIEFING  If you're interested in the purpose of the study you can read here.  Otherwise, press SPACEBAR to finish.  Heisenburg's observer problem in physics refers to the idea that,  by measuring something we sometimes change the thing we are  interested in measuring. This also applies in many areas of  psychology. One of the reaction time tasks you completed (the  Implicit Association Test) is often used as a measure of implicit  racial bias. In this experiment, we are examining whether the act  of completing a race IAT serves to change the racial biases it  seeks to measure. This may have implications for the interpretation and use of these measures in the future.","15","10","999","1","Press spacebar to finish","90","50","999"
"041318","19:06:33","8","223782864","4.0.10.0","1","1","debriefing","debriefing","0","0","0","0","0","0","57","0","37774","0","1","DEBRIEFING  If you're interested in the purpose of the study you can read here.  Otherwise, press SPACEBAR to finish.  Heisenburg's observer problem in physics refers to the idea that,  by measuring something we sometimes change the thing we are  interested in measuring. This also applies in many areas of  psychology. One of the reaction time tasks you completed (the  Implicit Association Test) is often used as a measure of implicit  racial bias. In this experiment, we are examining whether the act  of completing a race IAT serves to change the racial biases it  seeks to measure. This may have implications for the interpretation and use of these measures in the future.","15","10","991","1","Press spacebar to finish","90","50","991"
"041318","19:08:16","4","568135332","4.0.10.0","1","1","debriefing","debriefing","0","0","0","0","0","0","57","0","15276","0","1","DEBRIEFING  If you're interested in the purpose of the study you can read here.  Otherwise, press SPACEBAR to finish.  Heisenburg's observer problem in physics refers to the idea that,  by measuring something we sometimes change the thing we are  interested in measuring. This also applies in many areas of  psychology. One of the reaction time tasks you completed (the  Implicit Association Test) is often used as a measure of implicit  racial bias. In this experiment, we are examining whether the act  of completing a race IAT serves to change the racial biases it  seeks to measure. This may have implications for the interpretation and use of these measures in the future.","15","10","999","1","Press spacebar to finish","90","50","999"
"041318","19:10:24","5","355103961","4.0.10.0","1","1","debriefing","debriefing","0","0","0","0","0","0","57","0","4482","0","1","DEBRIEFING  If you're interested in the purpose of the study you can read here.  Otherwise, press SPACEBAR to finish.  Heisenburg's observer problem in physics refers to the idea that,  by measuring something we sometimes change the thing we are  interested in measuring. This also applies in many areas of  psychology. One of the reaction time tasks you completed (the  Implicit Association Test) is often used as a measure of implicit  racial bias. In this experiment, we are examining whether the act  of completing a race IAT serves to change the racial biases it  seeks to measure. This may have implications for the interpretation and use of these measures in the future.","15","10","999","1","Press spacebar to finish","90","50","999"
"041318","19:14:51","3","706020134","4.0.10.0","1","1","debriefing","debriefing","0","0","0","0","0","0","57","0","9990","0","1","DEBRIEFING  If you're interested in the purpose of the study you can read here.  Otherwise, press SPACEBAR to finish.  Heisenburg's observer problem in physics refers to the idea that,  by measuring something we sometimes change the thing we are  interested in measuring. This also applies in many areas of  psychology. One of the reaction time tasks you completed (the  Implicit Association Test) is often used as a measure of implicit  racial bias. In this experiment, we are examining whether the act  of completing a race IAT serves to change the racial biases it  seeks to measure. This may have implications for the interpretation and use of these measures in the future.","15","10","1018","1","Press spacebar to finish","90","50","1018"
"041318","13:15:06","8","381268263","4.0.10.0","1","1","debriefing","debriefing","0","0","0","0","0","0","57","0","3318","0","1","DEBRIEFING  If you're interested in the purpose of the study you can read here.  Otherwise, press SPACEBAR to finish.  Heisenburg's observer problem in physics refers to the idea that,  by measuring something we sometimes change the thing we are  interested in measuring. This also applies in many areas of  psychology. One of the reaction time tasks you completed (the  Implicit Association Test) is often used as a measure of implicit  racial bias. In this experiment, we are examining whether the act  of completing a race IAT serves to change the racial biases it  seeks to measure. This may have implications for the interpretation and use of these measures in the future.","15","10","999","1","Press spacebar to finish","90","50","999"
"041318","14:15:39","1","576027034","4.0.10.0","1","1","debriefing","debriefing","0","0","0","0","0","0","57","0","16847","0","1","DEBRIEFING  If you're interested in the purpose of the study you can read here.  Otherwise, press SPACEBAR to finish.  Heisenburg's observer problem in physics refers to the idea that,  by measuring something we sometimes change the thing we are  interested in measuring. This also applies in many areas of  psychology. One of the reaction time tasks you completed (the  Implicit Association Test) is often used as a measure of implicit  racial bias. In this experiment, we are examining whether the act  of completing a race IAT serves to change the racial biases it  seeks to measure. This may have implications for the interpretation and use of these measures in the future.","15","10","999","1","Press spacebar to finish","90","50","999"
"041318","14:17:05","7","367057467","4.0.10.0","1","1","debriefing","debriefing","0","0","0","0","0","0","57","0","11712","0","1","DEBRIEFING  If you're interested in the purpose of the study you can read here.  Otherwise, press SPACEBAR to finish.  Heisenburg's observer problem in physics refers to the idea that,  by measuring something we sometimes change the thing we are  interested in measuring. This also applies in many areas of  psychology. One of the reaction time tasks you completed (the  Implicit Association Test) is often used as a measure of implicit  racial bias. In this experiment, we are examining whether the act  of completing a race IAT serves to change the racial biases it  seeks to measure. This may have implications for the interpretation and use of these measures in the future.","15","10","1000","1","Press spacebar to finish","90","50","1000"
"041318","11:18:36","6","286215415","4.0.10.0","1","1","debriefing","debriefing","0","0","0","0","0","0","57","0","5518","0","1","DEBRIEFING  If you're interested in the purpose of the study you can read here.  Otherwise, press SPACEBAR to finish.  Heisenburg's observer problem in physics refers to the idea that,  by measuring something we sometimes change the thing we are  interested in measuring. This also applies in many areas of  psychology. One of the reaction time tasks you completed (the  Implicit Association Test) is often used as a measure of implicit  racial bias. In this experiment, we are examining whether the act  of completing a race IAT serves to change the racial biases it  seeks to measure. This may have implications for the interpretation and use of these measures in the future.","15","10","999","1","Press spacebar to finish","90","50","999"
"041318","13:18:53","7","310573074","4.0.10.0","1","1","debriefing","debriefing","0","0","0","0","0","0","57","0","17155","0","1","DEBRIEFING  If you're interested in the purpose of the study you can read here.  Otherwise, press SPACEBAR to finish.  Heisenburg's observer problem in physics refers to the idea that,  by measuring something we sometimes change the thing we are  interested in measuring. This also applies in many areas of  psychology. One of the reaction time tasks you completed (the  Implicit Association Test) is often used as a measure of implicit  racial bias. In this experiment, we are examining whether the act  of completing a race IAT serves to change the racial biases it  seeks to measure. This may have implications for the interpretation and use of these measures in the future.","15","10","999","1","Press spacebar to finish","90","50","999"
"041318","19:23:03","2","995007062","4.0.10.0","1","1","debriefing","debriefing","0","0","0","0","0","0","57","0","10201","0","1","DEBRIEFING  If you're interested in the purpose of the study you can read here.  Otherwise, press SPACEBAR to finish.  Heisenburg's observer problem in physics refers to the idea that,  by measuring something we sometimes change the thing we are  interested in measuring. This also applies in many areas of  psychology. One of the reaction time tasks you completed (the  Implicit Association Test) is often used as a measure of implicit  racial bias. In this experiment, we are examining whether the act  of completing a race IAT serves to change the racial biases it  seeks to measure. This may have implications for the interpretation and use of these measures in the future.","15","10","999","1","Press spacebar to finish","90","50","999"
"041318","19:24:32","5","803503329","4.0.10.0","1","1","debriefing","debriefing","0","0","0","0","0","0","57","0","5025","0","1","DEBRIEFING  If you're interested in the purpose of the study you can read here.  Otherwise, press SPACEBAR to finish.  Heisenburg's observer problem in physics refers to the idea that,  by measuring something we sometimes change the thing we are  interested in measuring. This also applies in many areas of  psychology. One of the reaction time tasks you completed (the  Implicit Association Test) is often used as a measure of implicit  racial bias. In this experiment, we are examining whether the act  of completing a race IAT serves to change the racial biases it  seeks to measure. This may have implications for the interpretation and use of these measures in the future.","15","10","999","1","Press spacebar to finish","90","50","999"
"041318","14:24:17","1","932005119","4.0.10.0","1","1","debriefing","debriefing","0","0","0","0","0","0","57","0","27746","0","1","DEBRIEFING  If you're interested in the purpose of the study you can read here.  Otherwise, press SPACEBAR to finish.  Heisenburg's observer problem in physics refers to the idea that,  by measuring something we sometimes change the thing we are  interested in measuring. This also applies in many areas of  psychology. One of the reaction time tasks you completed (the  Implicit Association Test) is often used as a measure of implicit  racial bias. In this experiment, we are examining whether the act  of completing a race IAT serves to change the racial biases it  seeks to measure. This may have implications for the interpretation and use of these measures in the future.","15","10","999","1","Press spacebar to finish","90","50","999"
"041318","15:55:25","2","414936969","4.0.10.0","1","1","debriefing","debriefing","0","0","0","0","0","0","57","0","26832","0","1","DEBRIEFING  If you're interested in the purpose of the study you can read here.  Otherwise, press SPACEBAR to finish.  Heisenburg's observer problem in physics refers to the idea that,  by measuring something we sometimes change the thing we are  interested in measuring. This also applies in many areas of  psychology. One of the reaction time tasks you completed (the  Implicit Association Test) is often used as a measure of implicit  racial bias. In this experiment, we are examining whether the act  of completing a race IAT serves to change the racial biases it  seeks to measure. This may have implications for the interpretation and use of these measures in the future.","15","10","999","1","Press spacebar to finish","90","50","999"
"041318","11:27:05","7","902266725","4.0.10.0","1","1","debriefing","debriefing","0","0","0","0","0","0","57","0","7159","0","1","DEBRIEFING  If you're interested in the purpose of the study you can read here.  Otherwise, press SPACEBAR to finish.  Heisenburg's observer problem in physics refers to the idea that,  by measuring something we sometimes change the thing we are  interested in measuring. This also applies in many areas of  psychology. One of the reaction time tasks you completed (the  Implicit Association Test) is often used as a measure of implicit  racial bias. In this experiment, we are examining whether the act  of completing a race IAT serves to change the racial biases it  seeks to measure. This may have implications for the interpretation and use of these measures in the future.","15","10","999","1","Press spacebar to finish","90","50","999"
"041318","19:27:17","8","117577909","4.0.10.0","1","1","debriefing","debriefing","0","0","0","0","0","0","57","0","9039","0","1","DEBRIEFING  If you're interested in the purpose of the study you can read here.  Otherwise, press SPACEBAR to finish.  Heisenburg's observer problem in physics refers to the idea that,  by measuring something we sometimes change the thing we are  interested in measuring. This also applies in many areas of  psychology. One of the reaction time tasks you completed (the  Implicit Association Test) is often used as a measure of implicit  racial bias. In this experiment, we are examining whether the act  of completing a race IAT serves to change the racial biases it  seeks to measure. This may have implications for the interpretation and use of these measures in the future.","15","10","999","1","Press spacebar to finish","90","50","999"
"041318","14:25:14","7","843153391","4.0.10.0","1","1","debriefing","debriefing","0","0","0","0","0","0","57","0","4484","0","1","DEBRIEFING  If you're interested in the purpose of the study you can read here.  Otherwise, press SPACEBAR to finish.  Heisenburg's observer problem in physics refers to the idea that,  by measuring something we sometimes change the thing we are  interested in measuring. This also applies in many areas of  psychology. One of the reaction time tasks you completed (the  Implicit Association Test) is often used as a measure of implicit  racial bias. In this experiment, we are examining whether the act  of completing a race IAT serves to change the racial biases it  seeks to measure. This may have implications for the interpretation and use of these measures in the future.","15","10","999","1","Press spacebar to finish","90","50","999"
"041318","19:28:40","3","179396886","4.0.10.0","1","1","debriefing","debriefing","0","0","0","0","0","0","57","0","17979","0","1","DEBRIEFING  If you're interested in the purpose of the study you can read here.  Otherwise, press SPACEBAR to finish.  Heisenburg's observer problem in physics refers to the idea that,  by measuring something we sometimes change the thing we are  interested in measuring. This also applies in many areas of  psychology. One of the reaction time tasks you completed (the  Implicit Association Test) is often used as a measure of implicit  racial bias. In this experiment, we are examining whether the act  of completing a race IAT serves to change the racial biases it  seeks to measure. This may have implications for the interpretation and use of these measures in the future.","15","10","999","1","Press spacebar to finish","90","50","999"
"041318","19:30:29","1","413266568","4.0.10.0","1","1","debriefing","debriefing","0","0","0","0","0","0","57","0","14130","0","1","DEBRIEFING  If you're interested in the purpose of the study you can read here.  Otherwise, press SPACEBAR to finish.  Heisenburg's observer problem in physics refers to the idea that,  by measuring something we sometimes change the thing we are  interested in measuring. This also applies in many areas of  psychology. One of the reaction time tasks you completed (the  Implicit Association Test) is often used as a measure of implicit  racial bias. In this experiment, we are examining whether the act  of completing a race IAT serves to change the racial biases it  seeks to measure. This may have implications for the interpretation and use of these measures in the future.","15","10","999","1","Press spacebar to finish","90","50","999"
"041318","19:32:04","2","942324321","4.0.10.0","1","1","debriefing","debriefing","0","0","0","0","0","0","57","0","37343","0","1","DEBRIEFING  If you're interested in the purpose of the study you can read here.  Otherwise, press SPACEBAR to finish.  Heisenburg's observer problem in physics refers to the idea that,  by measuring something we sometimes change the thing we are  interested in measuring. This also applies in many areas of  psychology. One of the reaction time tasks you completed (the  Implicit Association Test) is often used as a measure of implicit  racial bias. In this experiment, we are examining whether the act  of completing a race IAT serves to change the racial biases it  seeks to measure. This may have implications for the interpretation and use of these measures in the future.","15","10","1038","1","Press spacebar to finish","90","50","1038"
"041318","19:31:58","6","919092868","4.0.10.0","1","1","debriefing","debriefing","0","0","0","0","0","0","57","0","11708","0","1","DEBRIEFING  If you're interested in the purpose of the study you can read here.  Otherwise, press SPACEBAR to finish.  Heisenburg's observer problem in physics refers to the idea that,  by measuring something we sometimes change the thing we are  interested in measuring. This also applies in many areas of  psychology. One of the reaction time tasks you completed (the  Implicit Association Test) is often used as a measure of implicit  racial bias. In this experiment, we are examining whether the act  of completing a race IAT serves to change the racial biases it  seeks to measure. This may have implications for the interpretation and use of these measures in the future.","15","10","999","1","Press spacebar to finish","90","50","999"
"041318","13:32:33","5","906073171","4.0.10.0","1","1","debriefing","debriefing","0","0","0","0","0","0","57","0","13791","0","1","DEBRIEFING  If you're interested in the purpose of the study you can read here.  Otherwise, press SPACEBAR to finish.  Heisenburg's observer problem in physics refers to the idea that,  by measuring something we sometimes change the thing we are  interested in measuring. This also applies in many areas of  psychology. One of the reaction time tasks you completed (the  Implicit Association Test) is often used as a measure of implicit  racial bias. In this experiment, we are examining whether the act  of completing a race IAT serves to change the racial biases it  seeks to measure. This may have implications for the interpretation and use of these measures in the future.","15","10","999","1","Press spacebar to finish","90","50","999"
"041318","19:32:43","8","490524599","4.0.10.0","1","1","debriefing","debriefing","0","0","0","0","0","0","57","0","8392","0","1","DEBRIEFING  If you're interested in the purpose of the study you can read here.  Otherwise, press SPACEBAR to finish.  Heisenburg's observer problem in physics refers to the idea that,  by measuring something we sometimes change the thing we are  interested in measuring. This also applies in many areas of  psychology. One of the reaction time tasks you completed (the  Implicit Association Test) is often used as a measure of implicit  racial bias. In this experiment, we are examining whether the act  of completing a race IAT serves to change the racial biases it  seeks to measure. This may have implications for the interpretation and use of these measures in the future.","15","10","999","1","Press spacebar to finish","90","50","999"
"041318","14:33:39","4","856760907","4.0.10.0","1","1","debriefing","debriefing","0","0","0","0","0","0","57","0","4096","0","1","DEBRIEFING  If you're interested in the purpose of the study you can read here.  Otherwise, press SPACEBAR to finish.  Heisenburg's observer problem in physics refers to the idea that,  by measuring something we sometimes change the thing we are  interested in measuring. This also applies in many areas of  psychology. One of the reaction time tasks you completed (the  Implicit Association Test) is often used as a measure of implicit  racial bias. In this experiment, we are examining whether the act  of completing a race IAT serves to change the racial biases it  seeks to measure. This may have implications for the interpretation and use of these measures in the future.","15","10","999","1","Press spacebar to finish","90","50","999"
"041318","19:35:00","3","243305644","4.0.10.0","1","1","debriefing","debriefing","0","0","0","0","0","0","57","0","20370","0","1","DEBRIEFING  If you're interested in the purpose of the study you can read here.  Otherwise, press SPACEBAR to finish.  Heisenburg's observer problem in physics refers to the idea that,  by measuring something we sometimes change the thing we are  interested in measuring. This also applies in many areas of  psychology. One of the reaction time tasks you completed (the  Implicit Association Test) is often used as a measure of implicit  racial bias. In this experiment, we are examining whether the act  of completing a race IAT serves to change the racial biases it  seeks to measure. This may have implications for the interpretation and use of these measures in the future.","15","10","1021","1","Press spacebar to finish","90","50","1021"
"041318","14:35:32","4","723398734","4.0.10.0","1","1","debriefing","debriefing","0","0","0","0","0","0","57","0","11179","0","1","DEBRIEFING  If you're interested in the purpose of the study you can read here.  Otherwise, press SPACEBAR to finish.  Heisenburg's observer problem in physics refers to the idea that,  by measuring something we sometimes change the thing we are  interested in measuring. This also applies in many areas of  psychology. One of the reaction time tasks you completed (the  Implicit Association Test) is often used as a measure of implicit  racial bias. In this experiment, we are examining whether the act  of completing a race IAT serves to change the racial biases it  seeks to measure. This may have implications for the interpretation and use of these measures in the future.","15","10","999","1","Press spacebar to finish","90","50","999"
"041318","14:35:01","3","897461333","4.0.10.0","1","1","debriefing","debriefing","0","0","0","0","0","0","57","0","82012","0","1","DEBRIEFING  If you're interested in the purpose of the study you can read here.  Otherwise, press SPACEBAR to finish.  Heisenburg's observer problem in physics refers to the idea that,  by measuring something we sometimes change the thing we are  interested in measuring. This also applies in many areas of  psychology. One of the reaction time tasks you completed (the  Implicit Association Test) is often used as a measure of implicit  racial bias. In this experiment, we are examining whether the act  of completing a race IAT serves to change the racial biases it  seeks to measure. This may have implications for the interpretation and use of these measures in the future.","15","10","999","1","Press spacebar to finish","90","50","999"
"041318","19:37:42","4","158868420","4.0.10.0","1","1","debriefing","debriefing","0","0","0","0","0","0","57","0","40147","0","1","DEBRIEFING  If you're interested in the purpose of the study you can read here.  Otherwise, press SPACEBAR to finish.  Heisenburg's observer problem in physics refers to the idea that,  by measuring something we sometimes change the thing we are  interested in measuring. This also applies in many areas of  psychology. One of the reaction time tasks you completed (the  Implicit Association Test) is often used as a measure of implicit  racial bias. In this experiment, we are examining whether the act  of completing a race IAT serves to change the racial biases it  seeks to measure. This may have implications for the interpretation and use of these measures in the future.","15","10","999","1","Press spacebar to finish","90","50","999"
"041318","19:38:18","1","459708386","4.0.10.0","1","1","debriefing","debriefing","0","0","0","0","0","0","57","0","12248","0","1","DEBRIEFING  If you're interested in the purpose of the study you can read here.  Otherwise, press SPACEBAR to finish.  Heisenburg's observer problem in physics refers to the idea that,  by measuring something we sometimes change the thing we are  interested in measuring. This also applies in many areas of  psychology. One of the reaction time tasks you completed (the  Implicit Association Test) is often used as a measure of implicit  racial bias. In this experiment, we are examining whether the act  of completing a race IAT serves to change the racial biases it  seeks to measure. This may have implications for the interpretation and use of these measures in the future.","15","10","999","1","Press spacebar to finish","90","50","999"
"041318","19:38:27","7","469898792","4.0.10.0","1","1","debriefing","debriefing","0","0","0","0","0","0","57","0","21230","0","1","DEBRIEFING  If you're interested in the purpose of the study you can read here.  Otherwise, press SPACEBAR to finish.  Heisenburg's observer problem in physics refers to the idea that,  by measuring something we sometimes change the thing we are  interested in measuring. This also applies in many areas of  psychology. One of the reaction time tasks you completed (the  Implicit Association Test) is often used as a measure of implicit  racial bias. In this experiment, we are examining whether the act  of completing a race IAT serves to change the racial biases it  seeks to measure. This may have implications for the interpretation and use of these measures in the future.","15","10","999","1","Press spacebar to finish","90","50","999"
"041318","19:38:29","7","668360398","4.0.10.0","1","1","debriefing","debriefing","0","0","0","0","0","0","57","0","53793","0","1","DEBRIEFING  If you're interested in the purpose of the study you can read here.  Otherwise, press SPACEBAR to finish.  Heisenburg's observer problem in physics refers to the idea that,  by measuring something we sometimes change the thing we are  interested in measuring. This also applies in many areas of  psychology. One of the reaction time tasks you completed (the  Implicit Association Test) is often used as a measure of implicit  racial bias. In this experiment, we are examining whether the act  of completing a race IAT serves to change the racial biases it  seeks to measure. This may have implications for the interpretation and use of these measures in the future.","15","10","999","1","Press spacebar to finish","90","50","999"
"041318","14:40:36","3","933269461","4.0.10.0","1","1","debriefing","debriefing","0","0","0","0","0","0","57","0","2022","0","1","DEBRIEFING  If you're interested in the purpose of the study you can read here.  Otherwise, press SPACEBAR to finish.  Heisenburg's observer problem in physics refers to the idea that,  by measuring something we sometimes change the thing we are  interested in measuring. This also applies in many areas of  psychology. One of the reaction time tasks you completed (the  Implicit Association Test) is often used as a measure of implicit  racial bias. In this experiment, we are examining whether the act  of completing a race IAT serves to change the racial biases it  seeks to measure. This may have implications for the interpretation and use of these measures in the future.","15","10","999","1","Press spacebar to finish","90","50","999"
"041318","13:41:41","7","528645024","4.0.10.0","1","1","debriefing","debriefing","0","0","0","0","0","0","57","0","36168","0","1","DEBRIEFING  If you're interested in the purpose of the study you can read here.  Otherwise, press SPACEBAR to finish.  Heisenburg's observer problem in physics refers to the idea that,  by measuring something we sometimes change the thing we are  interested in measuring. This also applies in many areas of  psychology. One of the reaction time tasks you completed (the  Implicit Association Test) is often used as a measure of implicit  racial bias. In this experiment, we are examining whether the act  of completing a race IAT serves to change the racial biases it  seeks to measure. This may have implications for the interpretation and use of these measures in the future.","15","10","999","1","Press spacebar to finish","90","50","999"
"041318","19:43:57","7","17654798","4.0.10.0","1","1","debriefing","debriefing","0","0","0","0","0","0","57","0","8975","0","1","DEBRIEFING  If you're interested in the purpose of the study you can read here.  Otherwise, press SPACEBAR to finish.  Heisenburg's observer problem in physics refers to the idea that,  by measuring something we sometimes change the thing we are  interested in measuring. This also applies in many areas of  psychology. One of the reaction time tasks you completed (the  Implicit Association Test) is often used as a measure of implicit  racial bias. In this experiment, we are examining whether the act  of completing a race IAT serves to change the racial biases it  seeks to measure. This may have implications for the interpretation and use of these measures in the future.","15","10","999","1","Press spacebar to finish","90","50","999"
"041318","21:44:23","5","318408013","4.0.10.0","1","1","debriefing","debriefing","0","0","0","0","0","0","57","0","27383","0","1","DEBRIEFING  If you're interested in the purpose of the study you can read here.  Otherwise, press SPACEBAR to finish.  Heisenburg's observer problem in physics refers to the idea that,  by measuring something we sometimes change the thing we are  interested in measuring. This also applies in many areas of  psychology. One of the reaction time tasks you completed (the  Implicit Association Test) is often used as a measure of implicit  racial bias. In this experiment, we are examining whether the act  of completing a race IAT serves to change the racial biases it  seeks to measure. This may have implications for the interpretation and use of these measures in the future.","15","10","999","1","Press spacebar to finish","90","50","999"
"041318","14:45:25","6","606092254","4.0.10.0","1","1","debriefing","debriefing","0","0","0","0","0","0","57","0","3996","0","1","DEBRIEFING  If you're interested in the purpose of the study you can read here.  Otherwise, press SPACEBAR to finish.  Heisenburg's observer problem in physics refers to the idea that,  by measuring something we sometimes change the thing we are  interested in measuring. This also applies in many areas of  psychology. One of the reaction time tasks you completed (the  Implicit Association Test) is often used as a measure of implicit  racial bias. In this experiment, we are examining whether the act  of completing a race IAT serves to change the racial biases it  seeks to measure. This may have implications for the interpretation and use of these measures in the future.","15","10","999","1","Press spacebar to finish","90","50","999"
"041318","19:46:40","2","197153490","4.0.10.0","1","1","debriefing","debriefing","0","0","0","0","0","0","57","0","4973","0","1","DEBRIEFING  If you're interested in the purpose of the study you can read here.  Otherwise, press SPACEBAR to finish.  Heisenburg's observer problem in physics refers to the idea that,  by measuring something we sometimes change the thing we are  interested in measuring. This also applies in many areas of  psychology. One of the reaction time tasks you completed (the  Implicit Association Test) is often used as a measure of implicit  racial bias. In this experiment, we are examining whether the act  of completing a race IAT serves to change the racial biases it  seeks to measure. This may have implications for the interpretation and use of these measures in the future.","15","10","999","1","Press spacebar to finish","90","50","999"
"041318","19:47:28","1","754969591","4.0.10.0","1","1","debriefing","debriefing","0","0","0","0","0","0","57","0","2155","0","1","DEBRIEFING  If you're interested in the purpose of the study you can read here.  Otherwise, press SPACEBAR to finish.  Heisenburg's observer problem in physics refers to the idea that,  by measuring something we sometimes change the thing we are  interested in measuring. This also applies in many areas of  psychology. One of the reaction time tasks you completed (the  Implicit Association Test) is often used as a measure of implicit  racial bias. In this experiment, we are examining whether the act  of completing a race IAT serves to change the racial biases it  seeks to measure. This may have implications for the interpretation and use of these measures in the future.","15","10","999","1","Press spacebar to finish","90","50","999"
"041318","19:47:42","1","752193079","4.0.10.0","1","1","debriefing","debriefing","0","0","0","0","0","0","57","0","20629","0","1","DEBRIEFING  If you're interested in the purpose of the study you can read here.  Otherwise, press SPACEBAR to finish.  Heisenburg's observer problem in physics refers to the idea that,  by measuring something we sometimes change the thing we are  interested in measuring. This also applies in many areas of  psychology. One of the reaction time tasks you completed (the  Implicit Association Test) is often used as a measure of implicit  racial bias. In this experiment, we are examining whether the act  of completing a race IAT serves to change the racial biases it  seeks to measure. This may have implications for the interpretation and use of these measures in the future.","15","10","999","1","Press spacebar to finish","90","50","999"
"041318","14:48:10","3","954702142","4.0.10.0","1","1","debriefing","debriefing","0","0","0","0","0","0","57","0","2182","0","1","DEBRIEFING  If you're interested in the purpose of the study you can read here.  Otherwise, press SPACEBAR to finish.  Heisenburg's observer problem in physics refers to the idea that,  by measuring something we sometimes change the thing we are  interested in measuring. This also applies in many areas of  psychology. One of the reaction time tasks you completed (the  Implicit Association Test) is often used as a measure of implicit  racial bias. In this experiment, we are examining whether the act  of completing a race IAT serves to change the racial biases it  seeks to measure. This may have implications for the interpretation and use of these measures in the future.","15","10","999","1","Press spacebar to finish","90","50","999"
"041318","13:50:18","7","408288075","4.0.10.0","1","1","debriefing","debriefing","0","0","0","0","0","0","57","0","3562","0","1","DEBRIEFING  If you're interested in the purpose of the study you can read here.  Otherwise, press SPACEBAR to finish.  Heisenburg's observer problem in physics refers to the idea that,  by measuring something we sometimes change the thing we are  interested in measuring. This also applies in many areas of  psychology. One of the reaction time tasks you completed (the  Implicit Association Test) is often used as a measure of implicit  racial bias. In this experiment, we are examining whether the act  of completing a race IAT serves to change the racial biases it  seeks to measure. This may have implications for the interpretation and use of these measures in the future.","15","10","1010","1","Press spacebar to finish","90","50","1010"
"041318","14:50:51","6","532086590","4.0.10.0","1","1","debriefing","debriefing","0","0","0","0","0","0","57","0","3734","0","1","DEBRIEFING  If you're interested in the purpose of the study you can read here.  Otherwise, press SPACEBAR to finish.  Heisenburg's observer problem in physics refers to the idea that,  by measuring something we sometimes change the thing we are  interested in measuring. This also applies in many areas of  psychology. One of the reaction time tasks you completed (the  Implicit Association Test) is often used as a measure of implicit  racial bias. In this experiment, we are examining whether the act  of completing a race IAT serves to change the racial biases it  seeks to measure. This may have implications for the interpretation and use of these measures in the future.","15","10","999","1","Press spacebar to finish","90","50","999"
"041318","14:51:03","5","863811247","4.0.10.0","1","1","debriefing","debriefing","0","0","0","0","0","0","57","0","3197","0","1","DEBRIEFING  If you're interested in the purpose of the study you can read here.  Otherwise, press SPACEBAR to finish.  Heisenburg's observer problem in physics refers to the idea that,  by measuring something we sometimes change the thing we are  interested in measuring. This also applies in many areas of  psychology. One of the reaction time tasks you completed (the  Implicit Association Test) is often used as a measure of implicit  racial bias. In this experiment, we are examining whether the act  of completing a race IAT serves to change the racial biases it  seeks to measure. This may have implications for the interpretation and use of these measures in the future.","15","10","999","1","Press spacebar to finish","90","50","999"
"041318","19:51:29","1","698092745","4.0.10.0","1","1","debriefing","debriefing","0","0","0","0","0","0","57","0","2956","0","1","DEBRIEFING  If you're interested in the purpose of the study you can read here.  Otherwise, press SPACEBAR to finish.  Heisenburg's observer problem in physics refers to the idea that,  by measuring something we sometimes change the thing we are  interested in measuring. This also applies in many areas of  psychology. One of the reaction time tasks you completed (the  Implicit Association Test) is often used as a measure of implicit  racial bias. In this experiment, we are examining whether the act  of completing a race IAT serves to change the racial biases it  seeks to measure. This may have implications for the interpretation and use of these measures in the future.","15","10","999","1","Press spacebar to finish","90","50","999"
"041318","14:51:30","2","975448919","4.0.10.0","1","1","debriefing","debriefing","0","0","0","0","0","0","57","0","24411","0","1","DEBRIEFING  If you're interested in the purpose of the study you can read here.  Otherwise, press SPACEBAR to finish.  Heisenburg's observer problem in physics refers to the idea that,  by measuring something we sometimes change the thing we are  interested in measuring. This also applies in many areas of  psychology. One of the reaction time tasks you completed (the  Implicit Association Test) is often used as a measure of implicit  racial bias. In this experiment, we are examining whether the act  of completing a race IAT serves to change the racial biases it  seeks to measure. This may have implications for the interpretation and use of these measures in the future.","15","10","999","1","Press spacebar to finish","90","50","999"
"041318","14:55:18","3","356506405","4.0.10.0","1","1","debriefing","debriefing","0","0","0","0","0","0","57","0","26545","0","1","DEBRIEFING  If you're interested in the purpose of the study you can read here.  Otherwise, press SPACEBAR to finish.  Heisenburg's observer problem in physics refers to the idea that,  by measuring something we sometimes change the thing we are  interested in measuring. This also applies in many areas of  psychology. One of the reaction time tasks you completed (the  Implicit Association Test) is often used as a measure of implicit  racial bias. In this experiment, we are examining whether the act  of completing a race IAT serves to change the racial biases it  seeks to measure. This may have implications for the interpretation and use of these measures in the future.","15","10","1008","1","Press spacebar to finish","90","50","1008"
"041318","19:55:19","5","242161283","4.0.10.0","1","1","debriefing","debriefing","0","0","0","0","0","0","57","0","12321","0","1","DEBRIEFING  If you're interested in the purpose of the study you can read here.  Otherwise, press SPACEBAR to finish.  Heisenburg's observer problem in physics refers to the idea that,  by measuring something we sometimes change the thing we are  interested in measuring. This also applies in many areas of  psychology. One of the reaction time tasks you completed (the  Implicit Association Test) is often used as a measure of implicit  racial bias. In this experiment, we are examining whether the act  of completing a race IAT serves to change the racial biases it  seeks to measure. This may have implications for the interpretation and use of these measures in the future.","15","10","999","1","Press spacebar to finish","90","50","999"
"041318","14:55:30","4","992132586","4.0.10.0","1","1","debriefing","debriefing","0","0","0","0","0","0","57","0","5565","0","1","DEBRIEFING  If you're interested in the purpose of the study you can read here.  Otherwise, press SPACEBAR to finish.  Heisenburg's observer problem in physics refers to the idea that,  by measuring something we sometimes change the thing we are  interested in measuring. This also applies in many areas of  psychology. One of the reaction time tasks you completed (the  Implicit Association Test) is often used as a measure of implicit  racial bias. In this experiment, we are examining whether the act  of completing a race IAT serves to change the racial biases it  seeks to measure. This may have implications for the interpretation and use of these measures in the future.","15","10","999","1","Press spacebar to finish","90","50","999"
"041318","19:59:00","4","225589697","4.0.10.0","1","1","debriefing","debriefing","0","0","0","0","0","0","57","0","11128","0","1","DEBRIEFING  If you're interested in the purpose of the study you can read here.  Otherwise, press SPACEBAR to finish.  Heisenburg's observer problem in physics refers to the idea that,  by measuring something we sometimes change the thing we are  interested in measuring. This also applies in many areas of  psychology. One of the reaction time tasks you completed (the  Implicit Association Test) is often used as a measure of implicit  racial bias. In this experiment, we are examining whether the act  of completing a race IAT serves to change the racial biases it  seeks to measure. This may have implications for the interpretation and use of these measures in the future.","15","10","999","1","Press spacebar to finish","90","50","999"
"041318","19:59:20","5","270390590","4.0.10.0","1","1","debriefing","debriefing","0","0","0","0","0","0","57","0","21865","0","1","DEBRIEFING  If you're interested in the purpose of the study you can read here.  Otherwise, press SPACEBAR to finish.  Heisenburg's observer problem in physics refers to the idea that,  by measuring something we sometimes change the thing we are  interested in measuring. This also applies in many areas of  psychology. One of the reaction time tasks you completed (the  Implicit Association Test) is often used as a measure of implicit  racial bias. In this experiment, we are examining whether the act  of completing a race IAT serves to change the racial biases it  seeks to measure. This may have implications for the interpretation and use of these measures in the future.","15","10","999","1","Press spacebar to finish","90","50","999"
"041318","13:02:17","6","676606712","4.0.10.0","1","1","debriefing","debriefing","0","0","0","0","0","0","57","0","8612","0","1","DEBRIEFING  If you're interested in the purpose of the study you can read here.  Otherwise, press SPACEBAR to finish.  Heisenburg's observer problem in physics refers to the idea that,  by measuring something we sometimes change the thing we are  interested in measuring. This also applies in many areas of  psychology. One of the reaction time tasks you completed (the  Implicit Association Test) is often used as a measure of implicit  racial bias. In this experiment, we are examining whether the act  of completing a race IAT serves to change the racial biases it  seeks to measure. This may have implications for the interpretation and use of these measures in the future.","15","10","999","1","Press spacebar to finish","90","50","999"
"041318","20:08:07","1","295215975","4.0.10.0","1","1","debriefing","debriefing","0","0","0","0","0","0","57","0","20393","0","1","DEBRIEFING  If you're interested in the purpose of the study you can read here.  Otherwise, press SPACEBAR to finish.  Heisenburg's observer problem in physics refers to the idea that,  by measuring something we sometimes change the thing we are  interested in measuring. This also applies in many areas of  psychology. One of the reaction time tasks you completed (the  Implicit Association Test) is often used as a measure of implicit  racial bias. In this experiment, we are examining whether the act  of completing a race IAT serves to change the racial biases it  seeks to measure. This may have implications for the interpretation and use of these measures in the future.","15","10","999","1","Press spacebar to finish","90","50","999"
"041318","15:10:13","8","728008339","4.0.10.0","1","1","debriefing","debriefing","0","0","0","0","0","0","57","0","15864","0","1","DEBRIEFING  If you're interested in the purpose of the study you can read here.  Otherwise, press SPACEBAR to finish.  Heisenburg's observer problem in physics refers to the idea that,  by measuring something we sometimes change the thing we are  interested in measuring. This also applies in many areas of  psychology. One of the reaction time tasks you completed (the  Implicit Association Test) is often used as a measure of implicit  racial bias. In this experiment, we are examining whether the act  of completing a race IAT serves to change the racial biases it  seeks to measure. This may have implications for the interpretation and use of these measures in the future.","15","10","999","1","Press spacebar to finish","90","50","999"
"041318","15:11:58","2","549478871","4.0.10.0","1","1","debriefing","debriefing","0","0","0","0","0","0","57","0","526","0","1","DEBRIEFING  If you're interested in the purpose of the study you can read here.  Otherwise, press SPACEBAR to finish.  Heisenburg's observer problem in physics refers to the idea that,  by measuring something we sometimes change the thing we are  interested in measuring. This also applies in many areas of  psychology. One of the reaction time tasks you completed (the  Implicit Association Test) is often used as a measure of implicit  racial bias. In this experiment, we are examining whether the act  of completing a race IAT serves to change the racial biases it  seeks to measure. This may have implications for the interpretation and use of these measures in the future.","15","10","999","1","Press spacebar to finish","90","50","999"
"041318","20:12:39","7","193965097","4.0.10.0","1","1","debriefing","debriefing","0","0","0","0","0","0","57","0","20996","0","1","DEBRIEFING  If you're interested in the purpose of the study you can read here.  Otherwise, press SPACEBAR to finish.  Heisenburg's observer problem in physics refers to the idea that,  by measuring something we sometimes change the thing we are  interested in measuring. This also applies in many areas of  psychology. One of the reaction time tasks you completed (the  Implicit Association Test) is often used as a measure of implicit  racial bias. In this experiment, we are examining whether the act  of completing a race IAT serves to change the racial biases it  seeks to measure. This may have implications for the interpretation and use of these measures in the future.","15","10","999","1","Press spacebar to finish","90","50","999"
"041318","15:14:31","4","177873328","4.0.10.0","1","1","debriefing","debriefing","0","0","0","0","0","0","57","0","13885","0","1","DEBRIEFING  If you're interested in the purpose of the study you can read here.  Otherwise, press SPACEBAR to finish.  Heisenburg's observer problem in physics refers to the idea that,  by measuring something we sometimes change the thing we are  interested in measuring. This also applies in many areas of  psychology. One of the reaction time tasks you completed (the  Implicit Association Test) is often used as a measure of implicit  racial bias. In this experiment, we are examining whether the act  of completing a race IAT serves to change the racial biases it  seeks to measure. This may have implications for the interpretation and use of these measures in the future.","15","10","1022","1","Press spacebar to finish","90","50","1022"
"041318","12:15:48","7","757161678","4.0.10.0","1","1","debriefing","debriefing","0","0","0","0","0","0","57","0","4873","0","1","DEBRIEFING  If you're interested in the purpose of the study you can read here.  Otherwise, press SPACEBAR to finish.  Heisenburg's observer problem in physics refers to the idea that,  by measuring something we sometimes change the thing we are  interested in measuring. This also applies in many areas of  psychology. One of the reaction time tasks you completed (the  Implicit Association Test) is often used as a measure of implicit  racial bias. In this experiment, we are examining whether the act  of completing a race IAT serves to change the racial biases it  seeks to measure. This may have implications for the interpretation and use of these measures in the future.","15","10","991","1","Press spacebar to finish","90","50","991"
"041318","15:16:11","3","265294892","4.0.10.0","1","1","debriefing","debriefing","0","0","0","0","0","0","57","0","19487","0","1","DEBRIEFING  If you're interested in the purpose of the study you can read here.  Otherwise, press SPACEBAR to finish.  Heisenburg's observer problem in physics refers to the idea that,  by measuring something we sometimes change the thing we are  interested in measuring. This also applies in many areas of  psychology. One of the reaction time tasks you completed (the  Implicit Association Test) is often used as a measure of implicit  racial bias. In this experiment, we are examining whether the act  of completing a race IAT serves to change the racial biases it  seeks to measure. This may have implications for the interpretation and use of these measures in the future.","15","10","991","1","Press spacebar to finish","90","50","991"
"041318","14:17:18","6","494187998","4.0.10.0","1","1","debriefing","debriefing","0","0","0","0","0","0","57","0","5179","0","1","DEBRIEFING  If you're interested in the purpose of the study you can read here.  Otherwise, press SPACEBAR to finish.  Heisenburg's observer problem in physics refers to the idea that,  by measuring something we sometimes change the thing we are  interested in measuring. This also applies in many areas of  psychology. One of the reaction time tasks you completed (the  Implicit Association Test) is often used as a measure of implicit  racial bias. In this experiment, we are examining whether the act  of completing a race IAT serves to change the racial biases it  seeks to measure. This may have implications for the interpretation and use of these measures in the future.","15","10","999","1","Press spacebar to finish","90","50","999"
"041318","20:19:23","2","489831608","4.0.10.0","1","1","debriefing","debriefing","0","0","0","0","0","0","57","0","3043","0","1","DEBRIEFING  If you're interested in the purpose of the study you can read here.  Otherwise, press SPACEBAR to finish.  Heisenburg's observer problem in physics refers to the idea that,  by measuring something we sometimes change the thing we are  interested in measuring. This also applies in many areas of  psychology. One of the reaction time tasks you completed (the  Implicit Association Test) is often used as a measure of implicit  racial bias. In this experiment, we are examining whether the act  of completing a race IAT serves to change the racial biases it  seeks to measure. This may have implications for the interpretation and use of these measures in the future.","15","10","999","1","Press spacebar to finish","90","50","999"
"041318","15:20:39","1","47494535","4.0.10.0","1","1","debriefing","debriefing","0","0","0","0","0","0","57","0","3042","0","1","DEBRIEFING  If you're interested in the purpose of the study you can read here.  Otherwise, press SPACEBAR to finish.  Heisenburg's observer problem in physics refers to the idea that,  by measuring something we sometimes change the thing we are  interested in measuring. This also applies in many areas of  psychology. One of the reaction time tasks you completed (the  Implicit Association Test) is often used as a measure of implicit  racial bias. In this experiment, we are examining whether the act  of completing a race IAT serves to change the racial biases it  seeks to measure. This may have implications for the interpretation and use of these measures in the future.","15","10","999","1","Press spacebar to finish","90","50","999"
"041318","20:22:20","6","592488477","4.0.10.0","1","1","debriefing","debriefing","0","0","0","0","0","0","57","0","1281","0","1","DEBRIEFING  If you're interested in the purpose of the study you can read here.  Otherwise, press SPACEBAR to finish.  Heisenburg's observer problem in physics refers to the idea that,  by measuring something we sometimes change the thing we are  interested in measuring. This also applies in many areas of  psychology. One of the reaction time tasks you completed (the  Implicit Association Test) is often used as a measure of implicit  racial bias. In this experiment, we are examining whether the act  of completing a race IAT serves to change the racial biases it  seeks to measure. This may have implications for the interpretation and use of these measures in the future.","15","10","991","1","Press spacebar to finish","90","50","991"
"041318","20:22:53","1","956708556","4.0.10.0","1","1","debriefing","debriefing","0","0","0","0","0","0","57","0","37681","0","1","DEBRIEFING  If you're interested in the purpose of the study you can read here.  Otherwise, press SPACEBAR to finish.  Heisenburg's observer problem in physics refers to the idea that,  by measuring something we sometimes change the thing we are  interested in measuring. This also applies in many areas of  psychology. One of the reaction time tasks you completed (the  Implicit Association Test) is often used as a measure of implicit  racial bias. In this experiment, we are examining whether the act  of completing a race IAT serves to change the racial biases it  seeks to measure. This may have implications for the interpretation and use of these measures in the future.","15","10","999","1","Press spacebar to finish","90","50","999"
"041318","20:23:33","7","473496045","4.0.10.0","1","1","debriefing","debriefing","0","0","0","0","0","0","57","0","9926","0","1","DEBRIEFING  If you're interested in the purpose of the study you can read here.  Otherwise, press SPACEBAR to finish.  Heisenburg's observer problem in physics refers to the idea that,  by measuring something we sometimes change the thing we are  interested in measuring. This also applies in many areas of  psychology. One of the reaction time tasks you completed (the  Implicit Association Test) is often used as a measure of implicit  racial bias. In this experiment, we are examining whether the act  of completing a race IAT serves to change the racial biases it  seeks to measure. This may have implications for the interpretation and use of these measures in the future.","15","10","999","1","Press spacebar to finish","90","50","999"
"041318","11:23:06","4","124394901","4.0.10.0","1","1","debriefing","debriefing","0","0","0","0","0","0","57","0","38019","0","1","DEBRIEFING  If you're interested in the purpose of the study you can read here.  Otherwise, press SPACEBAR to finish.  Heisenburg's observer problem in physics refers to the idea that,  by measuring something we sometimes change the thing we are  interested in measuring. This also applies in many areas of  psychology. One of the reaction time tasks you completed (the  Implicit Association Test) is often used as a measure of implicit  racial bias. In this experiment, we are examining whether the act  of completing a race IAT serves to change the racial biases it  seeks to measure. This may have implications for the interpretation and use of these measures in the future.","15","10","999","1","Press spacebar to finish","90","50","999"
"041318","12:24:56","7","304170822","4.0.10.0","1","1","debriefing","debriefing","0","0","0","0","0","0","57","0","15297","0","1","DEBRIEFING  If you're interested in the purpose of the study you can read here.  Otherwise, press SPACEBAR to finish.  Heisenburg's observer problem in physics refers to the idea that,  by measuring something we sometimes change the thing we are  interested in measuring. This also applies in many areas of  psychology. One of the reaction time tasks you completed (the  Implicit Association Test) is often used as a measure of implicit  racial bias. In this experiment, we are examining whether the act  of completing a race IAT serves to change the racial biases it  seeks to measure. This may have implications for the interpretation and use of these measures in the future.","15","10","1005","1","Press spacebar to finish","90","50","1005"
"041318","15:25:29","5","902210692","4.0.10.0","1","1","debriefing","debriefing","0","0","0","0","0","0","57","0","8276","0","1","DEBRIEFING  If you're interested in the purpose of the study you can read here.  Otherwise, press SPACEBAR to finish.  Heisenburg's observer problem in physics refers to the idea that,  by measuring something we sometimes change the thing we are  interested in measuring. This also applies in many areas of  psychology. One of the reaction time tasks you completed (the  Implicit Association Test) is often used as a measure of implicit  racial bias. In this experiment, we are examining whether the act  of completing a race IAT serves to change the racial biases it  seeks to measure. This may have implications for the interpretation and use of these measures in the future.","15","10","991","1","Press spacebar to finish","90","50","991"
"041318","20:25:43","5","437174994","4.0.10.0","1","1","debriefing","debriefing","0","0","0","0","0","0","57","0","36857","0","1","DEBRIEFING  If you're interested in the purpose of the study you can read here.  Otherwise, press SPACEBAR to finish.  Heisenburg's observer problem in physics refers to the idea that,  by measuring something we sometimes change the thing we are  interested in measuring. This also applies in many areas of  psychology. One of the reaction time tasks you completed (the  Implicit Association Test) is often used as a measure of implicit  racial bias. In this experiment, we are examining whether the act  of completing a race IAT serves to change the racial biases it  seeks to measure. This may have implications for the interpretation and use of these measures in the future.","15","10","999","1","Press spacebar to finish","90","50","999"
"041318","15:29:01","2","112388191","4.0.10.0","1","1","debriefing","debriefing","0","0","0","0","0","0","57","0","5424","0","1","DEBRIEFING  If you're interested in the purpose of the study you can read here.  Otherwise, press SPACEBAR to finish.  Heisenburg's observer problem in physics refers to the idea that,  by measuring something we sometimes change the thing we are  interested in measuring. This also applies in many areas of  psychology. One of the reaction time tasks you completed (the  Implicit Association Test) is often used as a measure of implicit  racial bias. In this experiment, we are examining whether the act  of completing a race IAT serves to change the racial biases it  seeks to measure. This may have implications for the interpretation and use of these measures in the future.","15","10","1000","1","Press spacebar to finish","90","50","1000"
"041318","20:28:55","8","826236667","4.0.10.0","1","1","debriefing","debriefing","0","0","0","0","0","0","57","0","32093","0","1","DEBRIEFING  If you're interested in the purpose of the study you can read here.  Otherwise, press SPACEBAR to finish.  Heisenburg's observer problem in physics refers to the idea that,  by measuring something we sometimes change the thing we are  interested in measuring. This also applies in many areas of  psychology. One of the reaction time tasks you completed (the  Implicit Association Test) is often used as a measure of implicit  racial bias. In this experiment, we are examining whether the act  of completing a race IAT serves to change the racial biases it  seeks to measure. This may have implications for the interpretation and use of these measures in the future.","15","10","999","1","Press spacebar to finish","90","50","999"
"041318","20:29:21","7","301062341","4.0.10.0","1","1","debriefing","debriefing","0","0","0","0","0","0","57","0","15343","0","1","DEBRIEFING  If you're interested in the purpose of the study you can read here.  Otherwise, press SPACEBAR to finish.  Heisenburg's observer problem in physics refers to the idea that,  by measuring something we sometimes change the thing we are  interested in measuring. This also applies in many areas of  psychology. One of the reaction time tasks you completed (the  Implicit Association Test) is often used as a measure of implicit  racial bias. In this experiment, we are examining whether the act  of completing a race IAT serves to change the racial biases it  seeks to measure. This may have implications for the interpretation and use of these measures in the future.","15","10","991","1","Press spacebar to finish","90","50","991"
"041318","20:30:54","4","849747613","4.0.10.0","1","1","debriefing","debriefing","0","0","0","0","0","0","57","0","22265","0","1","DEBRIEFING  If you're interested in the purpose of the study you can read here.  Otherwise, press SPACEBAR to finish.  Heisenburg's observer problem in physics refers to the idea that,  by measuring something we sometimes change the thing we are  interested in measuring. This also applies in many areas of  psychology. One of the reaction time tasks you completed (the  Implicit Association Test) is often used as a measure of implicit  racial bias. In this experiment, we are examining whether the act  of completing a race IAT serves to change the racial biases it  seeks to measure. This may have implications for the interpretation and use of these measures in the future.","15","10","1030","1","Press spacebar to finish","90","50","1030"
"041318","20:32:22","5","531963939","4.0.10.0","1","1","debriefing","debriefing","0","0","0","0","0","0","57","0","12955","0","1","DEBRIEFING  If you're interested in the purpose of the study you can read here.  Otherwise, press SPACEBAR to finish.  Heisenburg's observer problem in physics refers to the idea that,  by measuring something we sometimes change the thing we are  interested in measuring. This also applies in many areas of  psychology. One of the reaction time tasks you completed (the  Implicit Association Test) is often used as a measure of implicit  racial bias. In this experiment, we are examining whether the act  of completing a race IAT serves to change the racial biases it  seeks to measure. This may have implications for the interpretation and use of these measures in the future.","15","10","999","1","Press spacebar to finish","90","50","999"
"041318","15:33:21","6","589588938","4.0.10.0","1","1","debriefing","debriefing","0","0","0","0","0","0","57","0","8347","0","1","DEBRIEFING  If you're interested in the purpose of the study you can read here.  Otherwise, press SPACEBAR to finish.  Heisenburg's observer problem in physics refers to the idea that,  by measuring something we sometimes change the thing we are  interested in measuring. This also applies in many areas of  psychology. One of the reaction time tasks you completed (the  Implicit Association Test) is often used as a measure of implicit  racial bias. In this experiment, we are examining whether the act  of completing a race IAT serves to change the racial biases it  seeks to measure. This may have implications for the interpretation and use of these measures in the future.","15","10","999","1","Press spacebar to finish","90","50","999"
"041318","20:37:00","5","616623005","4.0.10.0","1","1","debriefing","debriefing","0","0","0","0","0","0","57","0","1519","0","1","DEBRIEFING  If you're interested in the purpose of the study you can read here.  Otherwise, press SPACEBAR to finish.  Heisenburg's observer problem in physics refers to the idea that,  by measuring something we sometimes change the thing we are  interested in measuring. This also applies in many areas of  psychology. One of the reaction time tasks you completed (the  Implicit Association Test) is often used as a measure of implicit  racial bias. In this experiment, we are examining whether the act  of completing a race IAT serves to change the racial biases it  seeks to measure. This may have implications for the interpretation and use of these measures in the future.","15","10","999","1","Press spacebar to finish","90","50","999"
"041318","20:37:02","6","35155488","4.0.10.0","1","1","debriefing","debriefing","0","0","0","0","0","0","57","0","28250","0","1","DEBRIEFING  If you're interested in the purpose of the study you can read here.  Otherwise, press SPACEBAR to finish.  Heisenburg's observer problem in physics refers to the idea that,  by measuring something we sometimes change the thing we are  interested in measuring. This also applies in many areas of  psychology. One of the reaction time tasks you completed (the  Implicit Association Test) is often used as a measure of implicit  racial bias. In this experiment, we are examining whether the act  of completing a race IAT serves to change the racial biases it  seeks to measure. This may have implications for the interpretation and use of these measures in the future.","15","10","999","1","Press spacebar to finish","90","50","999"
"041318","15:37:26","8","508358502","4.0.10.0","1","1","debriefing","debriefing","0","0","0","0","0","0","57","0","17627","0","1","DEBRIEFING  If you're interested in the purpose of the study you can read here.  Otherwise, press SPACEBAR to finish.  Heisenburg's observer problem in physics refers to the idea that,  by measuring something we sometimes change the thing we are  interested in measuring. This also applies in many areas of  psychology. One of the reaction time tasks you completed (the  Implicit Association Test) is often used as a measure of implicit  racial bias. In this experiment, we are examining whether the act  of completing a race IAT serves to change the racial biases it  seeks to measure. This may have implications for the interpretation and use of these measures in the future.","15","10","999","1","Press spacebar to finish","90","50","999"
"041318","15:36:01","1","773667785","4.0.10.0","1","1","debriefing","debriefing","0","0","0","0","0","0","57","0","50213","0","1","DEBRIEFING  If you're interested in the purpose of the study you can read here.  Otherwise, press SPACEBAR to finish.  Heisenburg's observer problem in physics refers to the idea that,  by measuring something we sometimes change the thing we are  interested in measuring. This also applies in many areas of  psychology. One of the reaction time tasks you completed (the  Implicit Association Test) is often used as a measure of implicit  racial bias. In this experiment, we are examining whether the act  of completing a race IAT serves to change the racial biases it  seeks to measure. This may have implications for the interpretation and use of these measures in the future.","15","10","999","1","Press spacebar to finish","90","50","999"
"041318","20:40:04","1","388399433","4.0.10.0","1","1","debriefing","debriefing","0","0","0","0","0","0","57","0","33333","0","1","DEBRIEFING  If you're interested in the purpose of the study you can read here.  Otherwise, press SPACEBAR to finish.  Heisenburg's observer problem in physics refers to the idea that,  by measuring something we sometimes change the thing we are  interested in measuring. This also applies in many areas of  psychology. One of the reaction time tasks you completed (the  Implicit Association Test) is often used as a measure of implicit  racial bias. In this experiment, we are examining whether the act  of completing a race IAT serves to change the racial biases it  seeks to measure. This may have implications for the interpretation and use of these measures in the future.","15","10","999","1","Press spacebar to finish","90","50","999"
"041318","15:42:03","4","976684141","4.0.10.0","1","1","debriefing","debriefing","0","0","0","0","0","0","57","0","4001","0","1","DEBRIEFING  If you're interested in the purpose of the study you can read here.  Otherwise, press SPACEBAR to finish.  Heisenburg's observer problem in physics refers to the idea that,  by measuring something we sometimes change the thing we are  interested in measuring. This also applies in many areas of  psychology. One of the reaction time tasks you completed (the  Implicit Association Test) is often used as a measure of implicit  racial bias. In this experiment, we are examining whether the act  of completing a race IAT serves to change the racial biases it  seeks to measure. This may have implications for the interpretation and use of these measures in the future.","15","10","991","1","Press spacebar to finish","90","50","991"
"041318","12:42:07","8","233138542","4.0.10.0","1","1","debriefing","debriefing","0","0","0","0","0","0","57","0","9585","0","1","DEBRIEFING  If you're interested in the purpose of the study you can read here.  Otherwise, press SPACEBAR to finish.  Heisenburg's observer problem in physics refers to the idea that,  by measuring something we sometimes change the thing we are  interested in measuring. This also applies in many areas of  psychology. One of the reaction time tasks you completed (the  Implicit Association Test) is often used as a measure of implicit  racial bias. In this experiment, we are examining whether the act  of completing a race IAT serves to change the racial biases it  seeks to measure. This may have implications for the interpretation and use of these measures in the future.","15","10","999","1","Press spacebar to finish","90","50","999"
"041318","20:42:42","3","364027369","4.0.10.0","1","1","debriefing","debriefing","0","0","0","0","0","0","57","0","15548","0","1","DEBRIEFING  If you're interested in the purpose of the study you can read here.  Otherwise, press SPACEBAR to finish.  Heisenburg's observer problem in physics refers to the idea that,  by measuring something we sometimes change the thing we are  interested in measuring. This also applies in many areas of  psychology. One of the reaction time tasks you completed (the  Implicit Association Test) is often used as a measure of implicit  racial bias. In this experiment, we are examining whether the act  of completing a race IAT serves to change the racial biases it  seeks to measure. This may have implications for the interpretation and use of these measures in the future.","15","10","1007","1","Press spacebar to finish","90","50","1007"
