"","date","time","group","subject","build","blocknum","trialnum","blockcode","trialcode","pretrialpause","posttrialpause","windowcenter","trialduration","trialtimeout","blocktimeout","response","correct","latency","inwindow"
"1","041318","17:42:40","6","867752673","4.0.10.0","1","1","demographics","age","0","0","0","0","0","0","","1","2420","0"
"2","041318","17:03:21","2","905831587","4.0.10.0","1","1","demographics","age","0","0","0","0","0","0","64","1","5123","0"
"3","041318","17:03:21","2","905831587","4.0.10.0","1","2","demographics","gender","0","0","0","0","0","0","female","1","10479","0"
"4","041318","17:19:01","7","767115399","4.0.10.0","1","1","demographics","age","0","0","0","0","0","0","20 ","1","5839","0"
"5","041318","17:19:01","7","767115399","4.0.10.0","1","2","demographics","gender","0","0","0","0","0","0","Male","1","6507","0"
"6","041318","17:24:25","6","830748203","4.0.10.0","1","1","demographics","age","0","0","0","0","0","0","46","1","18239","0"
"7","041318","17:24:25","6","830748203","4.0.10.0","1","2","demographics","gender","0","0","0","0","0","0","female","1","7876","0"
"8","041318","12:45:45","1","231421624","4.0.10.0","1","1","demographics","age","0","0","0","0","0","0","47","1","16742","0"
"9","041318","12:45:45","1","231421624","4.0.10.0","1","2","demographics","gender","0","0","0","0","0","0","male","1","5830","0"
"10","041318","12:53:10","4","755961286","4.0.10.0","1","1","demographics","age","0","0","0","0","0","0","21 ","1","3515","0"
"11","041318","12:53:10","4","755961286","4.0.10.0","1","2","demographics","gender","0","0","0","0","0","0","female","1","4429","0"
"12","041318","09:54:46","7","442057301","4.0.10.0","1","1","demographics","age","0","0","0","0","0","0","30 ","1","14930","0"
"13","041318","09:54:46","7","442057301","4.0.10.0","1","2","demographics","gender","0","0","0","0","0","0","male","1","3052","0"
"14","041318","11:59:07","6","24129553","4.0.10.0","1","1","demographics","age","0","0","0","0","0","0","29","1","4314","0"
"15","041318","11:59:07","6","24129553","4.0.10.0","1","2","demographics","gender","0","0","0","0","0","0","male","1","3014","0"
"16","041318","18:03:42","2","213541838","4.0.10.0","1","1","demographics","age","0","0","0","0","0","0","58","1","7234","0"
"17","041318","18:03:42","2","213541838","4.0.10.0","1","2","demographics","gender","0","0","0","0","0","0","Female","1","10982","0"
"18","041318","18:04:22","8","284817422","4.0.10.0","1","1","demographics","age","0","0","0","0","0","0","22","1","8311","0"
"19","041318","18:04:22","8","284817422","4.0.10.0","1","2","demographics","gender","0","0","0","0","0","0","female","1","6972","0"
"20","041318","13:11:38","2","278872382","4.0.10.0","1","1","demographics","age","0","0","0","0","0","0","40","1","6870","0"
"21","041318","13:11:38","2","278872382","4.0.10.0","1","2","demographics","gender","0","0","0","0","0","0","f","1","4291","0"
"22","041318","18:10:42","3","650179091","4.0.10.0","1","1","demographics","age","0","0","0","0","0","0","21","1","32271","0"
"23","041318","18:10:42","3","650179091","4.0.10.0","1","2","demographics","gender","0","0","0","0","0","0","female","1","4897","0"
"24","041318","18:12:16","7","209849636","4.0.10.0","1","1","demographics","age","0","0","0","0","0","0","62","1","4000","0"
"25","041318","18:12:16","7","209849636","4.0.10.0","1","2","demographics","gender","0","0","0","0","0","0","female","1","6710","0"
"26","041318","18:17:24","5","436533122","4.0.10.0","1","1","demographics","age","0","0","0","0","0","0","24 ","1","5947","0"
"27","041318","18:17:24","5","436533122","4.0.10.0","1","2","demographics","gender","0","0","0","0","0","0","Female","1","4862","0"
"28","041318","13:18:22","1","308675497","4.0.10.0","1","1","demographics","age","0","0","0","0","0","0","21","1","4101","0"
"29","041318","13:18:22","1","308675497","4.0.10.0","1","2","demographics","gender","0","0","0","0","0","0","female","1","3950","0"
"30","041318","18:19:37","7","39920667","4.0.10.0","1","1","demographics","age","0","0","0","0","0","0","24 ","1","4741","0"
"31","041318","18:19:37","7","39920667","4.0.10.0","1","2","demographics","gender","0","0","0","0","0","0","Male","1","4580","0"
"32","041318","13:22:36","7","711210983","4.0.10.0","1","1","demographics","age","0","0","0","0","0","0","19","1","4114","0"
"33","041318","13:22:36","7","711210983","4.0.10.0","1","2","demographics","gender","0","0","0","0","0","0","Female","1","4487","0"
"34","041318","12:23:04","2","86938792","4.0.10.0","1","1","demographics","age","0","0","0","0","0","0","38","1","3415","0"
"35","041318","12:23:04","2","86938792","4.0.10.0","1","2","demographics","gender","0","0","0","0","0","0","female","1","3260","0"
"36","041318","12:25:52","1","766903329","4.0.10.0","1","1","demographics","age","0","0","0","0","0","0","25","1","2021","0"
"37","041318","12:25:52","1","766903329","4.0.10.0","1","2","demographics","gender","0","0","0","0","0","0","Male","1","4453","0"
"38","041318","13:28:32","5","855240671","4.0.10.0","1","1","demographics","age","0","0","0","0","0","0","40","1","4431","0"
"39","041318","13:28:32","5","855240671","4.0.10.0","1","2","demographics","gender","0","0","0","0","0","0","male","1","4382","0"
"40","041318","13:27:56","8","530436433","4.0.10.0","1","1","demographics","age","0","0","0","0","0","0","30","1","6203","0"
"41","041318","13:27:56","8","530436433","4.0.10.0","1","2","demographics","gender","0","0","0","0","0","0","female","1","5837","0"
"42","041318","10:29:20","3","426592903","4.0.10.0","1","1","demographics","age","0","0","0","0","0","0","34","1","4709","0"
"43","041318","10:29:20","3","426592903","4.0.10.0","1","2","demographics","gender","0","0","0","0","0","0","Male","1","4281","0"
"44","041318","12:29:55","1","416358122","4.0.10.0","1","1","demographics","age","0","0","0","0","0","0","42","1","4320","0"
"45","041318","12:29:55","1","416358122","4.0.10.0","1","2","demographics","gender","0","0","0","0","0","0","Female","1","6293","0"
"46","041318","13:30:58","8","998555993","4.0.10.0","1","1","demographics","age","0","0","0","0","0","0","45","1","5119","0"
"47","041318","13:30:58","8","998555993","4.0.10.0","1","2","demographics","gender","0","0","0","0","0","0","male","1","5039","0"
"48","041318","18:31:26","2","601961149","4.0.10.0","1","1","demographics","age","0","0","0","0","0","0","22 ","1","6375","0"
"49","041318","18:31:26","2","601961149","4.0.10.0","1","2","demographics","gender","0","0","0","0","0","0","female","1","3359","0"
"50","041318","18:32:26","5","236853641","4.0.10.0","1","1","demographics","age","0","0","0","0","0","0","38","1","6297","0"
"51","041318","18:32:26","5","236853641","4.0.10.0","1","2","demographics","gender","0","0","0","0","0","0","Male","1","4326","0"
"52","041318","18:32:34","4","145924742","4.0.10.0","1","1","demographics","age","0","0","0","0","0","0","21","1","5558","0"
"53","041318","18:32:34","4","145924742","4.0.10.0","1","2","demographics","gender","0","0","0","0","0","0","Female","1","3810","0"
"54","041318","10:42:03","2","972375767","4.0.10.0","1","1","demographics","age","0","0","0","0","0","0","30","1","2942","0"
"55","041318","10:42:03","2","972375767","4.0.10.0","1","2","demographics","gender","0","0","0","0","0","0","female","1","5035","0"
"56","041318","12:42:03","8","878482895","4.0.10.0","1","1","demographics","age","0","0","0","0","0","0","55","1","12664","0"
"57","041318","12:42:03","8","878482895","4.0.10.0","1","2","demographics","gender","0","0","0","0","0","0","Male","1","5019","0"
"58","041318","12:49:26","6","527775144","4.0.10.0","1","1","demographics","age","0","0","0","0","0","0","28","1","3804","0"
"59","041318","12:49:26","6","527775144","4.0.10.0","1","2","demographics","gender","0","0","0","0","0","0","Male","1","3070","0"
"60","041318","18:52:48","8","223782864","4.0.10.0","1","1","demographics","age","0","0","0","0","0","0","24","1","3583","0"
"61","041318","18:52:48","8","223782864","4.0.10.0","1","2","demographics","gender","0","0","0","0","0","0","male","1","3306","0"
"62","041318","13:53:49","1","389159334","4.0.10.0","1","1","demographics","age","0","0","0","0","0","0","42","1","4793","0"
"63","041318","13:53:49","1","389159334","4.0.10.0","1","2","demographics","gender","0","0","0","0","0","0","male","1","3895","0"
"64","041318","18:53:19","3","854706704","4.0.10.0","1","1","demographics","age","0","0","0","0","0","0","47","1","4968","0"
"65","041318","18:53:19","3","854706704","4.0.10.0","1","2","demographics","gender","0","0","0","0","0","0","female","1","9036","0"
"66","041318","18:57:21","4","568135332","4.0.10.0","1","1","demographics","age","0","0","0","0","0","0","34","1","4025","0"
"67","041318","18:57:21","4","568135332","4.0.10.0","1","2","demographics","gender","0","0","0","0","0","0","female","1","3278","0"
"68","041318","18:59:22","5","355103961","4.0.10.0","1","1","demographics","age","0","0","0","0","0","0","51","1","10785","0"
"69","041318","18:59:22","5","355103961","4.0.10.0","1","2","demographics","gender","0","0","0","0","0","0","male","1","4368","0"
"70","041318","13:58:53","7","367057467","4.0.10.0","1","1","demographics","age","0","0","0","0","0","0","40","1","8105","0"
"71","041318","13:58:53","7","367057467","4.0.10.0","1","2","demographics","gender","0","0","0","0","0","0","male","1","6893","0"
"72","041318","19:03:02","3","706020134","4.0.10.0","1","1","demographics","age","0","0","0","0","0","0","24","1","3087","0"
"73","041318","19:03:02","3","706020134","4.0.10.0","1","2","demographics","gender","0","0","0","0","0","0","Female","1","2431","0"
"74","041318","14:04:51","1","576027034","4.0.10.0","1","1","demographics","age","0","0","0","0","0","0","58 ","1","8298","0"
"75","041318","14:04:51","1","576027034","4.0.10.0","1","2","demographics","gender","0","0","0","0","0","0","female","1","13029","0"
"76","041318","13:06:16","8","381268263","4.0.10.0","1","1","demographics","age","0","0","0","0","0","0","34","1","3318","0"
"77","041318","13:06:16","8","381268263","4.0.10.0","1","2","demographics","gender","0","0","0","0","0","0","female","1","4650","0"
"78","041318","15:38:47","2","414936969","4.0.10.0","1","1","demographics","age","0","0","0","0","0","0","60","1","5642","0"
"79","041318","15:38:47","2","414936969","4.0.10.0","1","2","demographics","gender","0","0","0","0","0","0","male","1","8940","0"
"80","041318","13:10:30","7","310573074","4.0.10.0","1","1","demographics","age","0","0","0","0","0","0","44","1","4029","0"
"81","041318","13:10:30","7","310573074","4.0.10.0","1","2","demographics","gender","0","0","0","0","0","0","female","1","3697","0"
"82","041318","11:11:49","6","286215415","4.0.10.0","1","1","demographics","age","0","0","0","0","0","0","40","1","10553","0"
"83","041318","11:11:49","6","286215415","4.0.10.0","1","2","demographics","gender","0","0","0","0","0","0","male","1","6263","0"
"84","041318","19:11:29","5","803503329","4.0.10.0","1","1","demographics","age","0","0","0","0","0","0","26","1","6848","0"
"85","041318","19:11:29","5","803503329","4.0.10.0","1","2","demographics","gender","0","0","0","0","0","0","Female","1","6502","0"
"86","041318","19:13:35","2","995007062","4.0.10.0","1","1","demographics","age","0","0","0","0","0","0","19","1","4632","0"
"87","041318","19:13:35","2","995007062","4.0.10.0","1","2","demographics","gender","0","0","0","0","0","0","Male","1","4925","0"
"88","041318","14:14:05","1","932005119","4.0.10.0","1","1","demographics","age","0","0","0","0","0","0","28","1","4791","0"
"89","041318","14:14:05","1","932005119","4.0.10.0","1","2","demographics","gender","0","0","0","0","0","0","Male","1","3299","0"
"90","041318","11:17:17","7","902266725","4.0.10.0","1","1","demographics","age","0","0","0","0","0","0","31","1","6628","0"
"91","041318","11:17:17","7","902266725","4.0.10.0","1","2","demographics","gender","0","0","0","0","0","0","Female","1","4345","0"
"92","041318","19:18:08","8","117577909","4.0.10.0","1","1","demographics","age","0","0","0","0","0","0","27","1","7148","0"
"93","041318","19:18:08","8","117577909","4.0.10.0","1","2","demographics","gender","0","0","0","0","0","0","Male","1","3702","0"
"94","041318","19:18:04","3","179396886","4.0.10.0","1","1","demographics","age","0","0","0","0","0","0","20 ","1","8126","0"
"95","041318","19:18:04","3","179396886","4.0.10.0","1","2","demographics","gender","0","0","0","0","0","0","female","1","4135","0"
"96","041318","14:16:09","7","843153391","4.0.10.0","1","1","demographics","age","0","0","0","0","0","0","53","1","4101","0"
"97","041318","14:16:09","7","843153391","4.0.10.0","1","2","demographics","gender","0","0","0","0","0","0","Male","1","8106","0"
"98","041318","19:21:56","2","942324321","4.0.10.0","1","1","demographics","age","0","0","0","0","0","0","53","1","6138","0"
"99","041318","19:21:56","2","942324321","4.0.10.0","1","2","demographics","gender","0","0","0","0","0","0","female","1","7600","0"
"100","041318","19:21:23","1","413266568","4.0.10.0","1","1","demographics","age","0","0","0","0","0","0","32","1","4749","0"
"101","041318","19:21:23","1","413266568","4.0.10.0","1","2","demographics","gender","0","0","0","0","0","0","Female","1","5331","0"
"102","041318","19:21:17","6","919092868","4.0.10.0","1","1","demographics","age","0","0","0","0","0","0","52","1","4913","0"
"103","041318","19:21:17","6","919092868","4.0.10.0","1","2","demographics","gender","0","0","0","0","0","0","female","1","7561","0"
"104","041318","14:22:14","3","897461333","4.0.10.0","1","1","demographics","age","0","0","0","0","0","0","18","1","5899","0"
"105","041318","14:22:14","3","897461333","4.0.10.0","1","2","demographics","gender","0","0","0","0","0","0","Male","1","4681","0"
"106","041318","19:22:59","8","490524599","4.0.10.0","1","1","demographics","age","0","0","0","0","0","0","48","1","8152","0"
"107","041318","19:22:59","8","490524599","4.0.10.0","1","2","demographics","gender","0","0","0","0","0","0","female","1","6459","0"
"108","041318","13:23:40","5","906073171","4.0.10.0","1","1","demographics","age","0","0","0","0","0","0","46","1","4716","0"
"109","041318","13:23:40","5","906073171","4.0.10.0","1","2","demographics","gender","0","0","0","0","0","0","male","1","3588","0"
"110","041318","14:22:26","4","856760907","4.0.10.0","1","1","demographics","age","0","0","0","0","0","0","40","1","5733","0"
"111","041318","14:22:26","4","856760907","4.0.10.0","1","2","demographics","gender","0","0","0","0","0","0","male","1","7657","0"
"112","041318","19:25:15","4","158868420","4.0.10.0","1","1","demographics","age","0","0","0","0","0","0","46","1","5840","0"
"113","041318","19:25:15","4","158868420","4.0.10.0","1","2","demographics","gender","0","0","0","0","0","0","Male","1","4884","0"
"114","041318","19:24:41","7","469898792","4.0.10.0","1","1","demographics","age","0","0","0","0","0","0","23","1","14534","0"
"115","041318","19:24:41","7","469898792","4.0.10.0","1","2","demographics","gender","0","0","0","0","0","0","Male","1","5609","0"
"116","041318","14:25:54","4","723398734","4.0.10.0","1","1","demographics","age","0","0","0","0","0","0","59","1","11459","0"
"117","041318","14:25:54","4","723398734","4.0.10.0","1","2","demographics","gender","0","0","0","0","0","0","male","1","4206","0"
"118","041318","19:26:11","3","243305644","4.0.10.0","1","1","demographics","age","0","0","0","0","0","0","44","1","2637","0"
"119","041318","19:26:11","3","243305644","4.0.10.0","1","2","demographics","gender","0","0","0","0","0","0","female","1","8240","0"
"120","041318","19:27:38","7","668360398","4.0.10.0","1","1","demographics","age","0","0","0","0","0","0","41","1","6196","0"
"121","041318","19:27:38","7","668360398","4.0.10.0","1","2","demographics","gender","0","0","0","0","0","0","Female","1","4308","0"
"122","041318","14:27:52","3","933269461","4.0.10.0","1","1","demographics","age","0","0","0","0","0","0","45","1","4806","0"
"123","041318","14:27:52","3","933269461","4.0.10.0","1","2","demographics","gender","0","0","0","0","0","0","male","1","13605","0"
"124","041318","19:28:01","1","459708386","4.0.10.0","1","1","demographics","age","0","0","0","0","0","0","50","1","4480","0"
"125","041318","19:28:01","1","459708386","4.0.10.0","1","2","demographics","gender","0","0","0","0","0","0","male","1","4284","0"
"126","041318","14:29:12","2","677511107","4.0.10.0","1","1","demographics","age","0","0","0","0","0","0","53","1","8517","0"
"127","041318","14:29:12","2","677511107","4.0.10.0","1","2","demographics","gender","0","0","0","0","0","0","Male","1","11515","0"
"128","041318","13:33:05","7","528645024","4.0.10.0","1","1","demographics","age","0","0","0","0","0","0","19","1","10322","0"
"129","041318","13:33:05","7","528645024","4.0.10.0","1","2","demographics","gender","0","0","0","0","0","0","Male","1","3833","0"
"130","041318","21:33:45","5","318408013","4.0.10.0","1","1","demographics","age","0","0","0","0","0","0","19","1","10094","0"
"131","041318","21:33:45","5","318408013","4.0.10.0","1","2","demographics","gender","0","0","0","0","0","0","male","1","5390","0"
"132","041318","19:34:51","7","17654798","4.0.10.0","1","1","demographics","age","0","0","0","0","0","0","44","1","6437","0"
"133","041318","19:34:51","7","17654798","4.0.10.0","1","2","demographics","gender","0","0","0","0","0","0","female","1","4738","0"
"134","041318","19:35:24","2","197153490","4.0.10.0","1","1","demographics","age","0","0","0","0","0","0","48","1","5165","0"
"135","041318","19:35:24","2","197153490","4.0.10.0","1","2","demographics","gender","0","0","0","0","0","0","female","1","6001","0"
"136","041318","14:37:11","6","606092254","4.0.10.0","1","1","demographics","age","0","0","0","0","0","0","34","1","3471","0"
"137","041318","14:37:11","6","606092254","4.0.10.0","1","2","demographics","gender","0","0","0","0","0","0","F","1","2132","0"
"138","041318","19:38:16","1","752193079","4.0.10.0","1","1","demographics","age","0","0","0","0","0","0","44","1","6082","0"
"139","041318","19:38:16","1","752193079","4.0.10.0","1","2","demographics","gender","0","0","0","0","0","0","MALE","1","4147","0"
"140","041318","14:38:18","3","954702142","4.0.10.0","1","1","demographics","age","0","0","0","0","0","0","43 ","1","4064","0"
"141","041318","14:38:18","3","954702142","4.0.10.0","1","2","demographics","gender","0","0","0","0","0","0","male","1","3999","0"
"142","041318","19:38:58","1","754969591","4.0.10.0","1","1","demographics","age","0","0","0","0","0","0","31","1","3729","0"
"143","041318","19:38:58","1","754969591","4.0.10.0","1","2","demographics","gender","0","0","0","0","0","0","male","1","5095","0"
"144","041318","13:40:23","7","408288075","4.0.10.0","1","1","demographics","age","0","0","0","0","0","0","48","1","8772","0"
"145","041318","13:40:23","7","408288075","4.0.10.0","1","2","demographics","gender","0","0","0","0","0","0","male","1","3427","0"
"146","041318","14:42:20","5","863811247","4.0.10.0","1","1","demographics","age","0","0","0","0","0","0","61","1","4303","0"
"147","041318","14:42:20","5","863811247","4.0.10.0","1","2","demographics","gender","0","0","0","0","0","0","female","1","6849","0"
"148","041318","14:42:41","6","532086590","4.0.10.0","1","1","demographics","age","0","0","0","0","0","0","53","1","5609","0"
"149","041318","14:42:41","6","532086590","4.0.10.0","1","2","demographics","gender","0","0","0","0","0","0","female","1","7542","0"
"150","041318","14:43:10","2","975448919","4.0.10.0","1","1","demographics","age","0","0","0","0","0","0","29","1","8043","0"
"151","041318","14:43:10","2","975448919","4.0.10.0","1","2","demographics","gender","0","0","0","0","0","0","male","1","3841","0"
"152","041318","19:43:17","1","698092745","4.0.10.0","1","1","demographics","age","0","0","0","0","0","0","19","1","6785","0"
"153","041318","19:43:17","1","698092745","4.0.10.0","1","2","demographics","gender","0","0","0","0","0","0","Female","1","3662","0"
"154","041318","19:44:21","5","242161283","4.0.10.0","1","1","demographics","age","0","0","0","0","0","0","33","1","4184","0"
"155","041318","19:44:21","5","242161283","4.0.10.0","1","2","demographics","gender","0","0","0","0","0","0","female","1","4930","0"
"156","041318","14:46:24","3","356506405","4.0.10.0","1","1","demographics","age","0","0","0","0","0","0","24","1","5135","0"
"157","041318","14:46:24","3","356506405","4.0.10.0","1","2","demographics","gender","0","0","0","0","0","0","Female","1","3244","0"
"158","041318","14:45:21","4","992132586","4.0.10.0","1","1","demographics","age","0","0","0","0","0","0","56","1","5025","0"
"159","041318","14:45:21","4","992132586","4.0.10.0","1","2","demographics","gender","0","0","0","0","0","0","male","1","5624","0"
"160","041318","19:49:24","5","270390590","4.0.10.0","1","1","demographics","age","0","0","0","0","0","0","21","1","4463","0"
"161","041318","19:49:24","5","270390590","4.0.10.0","1","2","demographics","gender","0","0","0","0","0","0","Male","1","3355","0"
"162","041318","19:49:09","4","225589697","4.0.10.0","1","1","demographics","age","0","0","0","0","0","0","34","1","4663","0"
"163","041318","19:49:09","4","225589697","4.0.10.0","1","2","demographics","gender","0","0","0","0","0","0","Male","1","4219","0"
"164","041318","14:51:49","2","549478871","4.0.10.0","1","1","demographics","age","0","0","0","0","0","0","47","1","3851","0"
"165","041318","14:51:49","2","549478871","4.0.10.0","1","2","demographics","gender","0","0","0","0","0","0","male","1","8249","0"
"166","041418","04:52:09","1","780325366","4.0.10.0","1","1","demographics","age","0","0","0","0","0","0","47","1","2948","0"
"167","041418","04:52:09","1","780325366","4.0.10.0","1","2","demographics","gender","0","0","0","0","0","0","female","1","7812","0"
"168","041318","12:52:34","6","676606712","4.0.10.0","1","1","demographics","age","0","0","0","0","0","0","44","1","3888","0"
"169","041318","12:52:34","6","676606712","4.0.10.0","1","2","demographics","gender","0","0","0","0","0","0","female","1","4379","0"
"170","041418","04:54:41","1","780325366","4.0.10.0","1","1","demographics","age","0","0","0","0","0","0","47","1","2786","0"
"171","041418","04:54:41","1","780325366","4.0.10.0","1","2","demographics","gender","0","0","0","0","0","0","female","1","5145","0"
"172","041318","19:59:07","1","295215975","4.0.10.0","1","1","demographics","age","0","0","0","0","0","0","24","1","4866","0"
"173","041318","19:59:07","1","295215975","4.0.10.0","1","2","demographics","gender","0","0","0","0","0","0","Male","1","3285","0"
"174","041318","14:59:57","8","728008339","4.0.10.0","1","1","demographics","age","0","0","0","0","0","0","35","1","5423","0"
"175","041318","14:59:57","8","728008339","4.0.10.0","1","2","demographics","gender","0","0","0","0","0","0","Male","1","4595","0"
"176","041318","19:58:23","7","193965097","4.0.10.0","1","1","demographics","age","0","0","0","0","0","0","50","1","5316","0"
"177","041318","19:58:23","7","193965097","4.0.10.0","1","2","demographics","gender","0","0","0","0","0","0","Female","1","4332","0"
"178","041318","12:02:09","7","757161678","4.0.10.0","1","1","demographics","age","0","0","0","0","0","0","42","1","4520","0"
"179","041318","12:02:09","7","757161678","4.0.10.0","1","2","demographics","gender","0","0","0","0","0","0","male","1","5478","0"
"180","041318","15:05:10","4","177873328","4.0.10.0","1","1","demographics","age","0","0","0","0","0","0","52 ","1","10860","0"
"181","041318","15:05:10","4","177873328","4.0.10.0","1","2","demographics","gender","0","0","0","0","0","0","female","1","7570","0"
"182","041318","20:05:46","4","373357770","4.0.10.0","1","1","demographics","age","0","0","0","0","0","0","39","1","4697","0"
"183","041318","20:05:46","4","373357770","4.0.10.0","1","2","demographics","gender","0","0","0","0","0","0","female","1","7242","0"
"184","041318","15:08:38","3","265294892","4.0.10.0","1","1","demographics","age","0","0","0","0","0","0","21","1","4333","0"
"185","041318","15:08:38","3","265294892","4.0.10.0","1","2","demographics","gender","0","0","0","0","0","0","female","1","2619","0"
"186","041318","14:09:07","6","494187998","4.0.10.0","1","1","demographics","age","0","0","0","0","0","0","22 ","1","8699","0"
"187","041318","14:09:07","6","494187998","4.0.10.0","1","2","demographics","gender","0","0","0","0","0","0","female","1","5310","0"
"188","041318","20:09:54","2","489831608","4.0.10.0","1","1","demographics","age","0","0","0","0","0","0","52","1","6397","0"
"189","041318","20:09:54","2","489831608","4.0.10.0","1","2","demographics","gender","0","0","0","0","0","0","m","1","4191","0"
"190","041318","20:10:15","1","956708556","4.0.10.0","1","1","demographics","age","0","0","0","0","0","0","36","1","5852","0"
"191","041318","20:10:15","1","956708556","4.0.10.0","1","2","demographics","gender","0","0","0","0","0","0","Female","1","6051","0"
"192","041318","15:10:52","8","137561087","4.0.10.0","1","1","demographics","age","0","0","0","0","0","0","47","1","5366","0"
"193","041318","15:10:52","8","137561087","4.0.10.0","1","2","demographics","gender","0","0","0","0","0","0","male","1","11054","0"
"194","041318","20:09:25","7","473496045","4.0.10.0","1","1","demographics","age","0","0","0","0","0","0","42","1","5440","0"
"195","041318","20:09:25","7","473496045","4.0.10.0","1","2","demographics","gender","0","0","0","0","0","0","female","1","5709","0"
"196","041318","20:12:42","5","437174994","4.0.10.0","1","1","demographics","age","0","0","0","0","0","0","54","1","19692","0"
"197","041318","20:12:42","5","437174994","4.0.10.0","1","2","demographics","gender","0","0","0","0","0","0","male","1","9140","0"
"198","041318","20:12:17","6","592488477","4.0.10.0","1","1","demographics","age","0","0","0","0","0","0","26","1","4047","0"
"199","041318","20:12:17","6","592488477","4.0.10.0","1","2","demographics","gender","0","0","0","0","0","0","Female","1","2801","0"
"200","041318","15:12:08","1","47494535","4.0.10.0","1","1","demographics","age","0","0","0","0","0","0","51","1","3108","0"
"201","041318","15:12:08","1","47494535","4.0.10.0","1","2","demographics","gender","0","0","0","0","0","0","female","1","3623","0"
"202","041318","11:15:12","4","124394901","4.0.10.0","1","1","demographics","age","0","0","0","0","0","0","20","1","5383","0"
"203","041318","11:15:12","4","124394901","4.0.10.0","1","2","demographics","gender","0","0","0","0","0","0","Male","1","3701","0"
"204","041318","12:14:54","7","304170822","4.0.10.0","1","1","demographics","age","0","0","0","0","0","0","27","1","42721","0"
"205","041318","12:14:54","7","304170822","4.0.10.0","1","2","demographics","gender","0","0","0","0","0","0","Male","1","6285","0"
"206","041318","15:16:15","5","902210692","4.0.10.0","1","1","demographics","age","0","0","0","0","0","0","26","1","3463","0"
"207","041318","15:16:15","5","902210692","4.0.10.0","1","2","demographics","gender","0","0","0","0","0","0","female","1","3039","0"
"208","041318","15:18:28","2","112388191","4.0.10.0","1","1","demographics","age","0","0","0","0","0","0","61","1","6008","0"
"209","041318","15:18:28","2","112388191","4.0.10.0","1","2","demographics","gender","0","0","0","0","0","0","Female","1","7337","0"
"210","041318","15:17:05","5","274851162","4.0.10.0","1","1","demographics","age","0","0","0","0","0","0","41","1","5330","0"
"211","041318","15:17:05","5","274851162","4.0.10.0","1","2","demographics","gender","0","0","0","0","0","0","Male","1","4050","0"
"212","041318","15:19:32","5","274851162","4.0.10.0","1","1","demographics","age","0","0","0","0","0","0","41","1","2605","0"
"213","041318","15:19:32","5","274851162","4.0.10.0","1","2","demographics","gender","0","0","0","0","0","0","Male","1","3249","0"
"214","041318","20:19:18","8","826236667","4.0.10.0","1","1","demographics","age","0","0","0","0","0","0","28 ","1","6332","0"
"215","041318","20:19:18","8","826236667","4.0.10.0","1","2","demographics","gender","0","0","0","0","0","0","female","1","5368","0"
"216","041318","20:19:58","7","301062341","4.0.10.0","1","1","demographics","age","0","0","0","0","0","0","39","1","3975","0"
"217","041318","20:19:58","7","301062341","4.0.10.0","1","2","demographics","gender","0","0","0","0","0","0","female","1","4215","0"
"218","041318","20:22:07","4","849747613","4.0.10.0","1","1","demographics","age","0","0","0","0","0","0","30","1","6218","0"
"219","041318","20:22:07","4","849747613","4.0.10.0","1","2","demographics","gender","0","0","0","0","0","0","female","1","5054","0"
"220","041318","20:22:31","5","531963939","4.0.10.0","1","1","demographics","age","0","0","0","0","0","0","21","1","12551","0"
"221","041318","20:22:31","5","531963939","4.0.10.0","1","2","demographics","gender","0","0","0","0","0","0","Female","1","4518","0"
"222","041318","15:25:34","6","589588938","4.0.10.0","1","1","demographics","age","0","0","0","0","0","0","22","1","12737","0"
"223","041318","15:25:34","6","589588938","4.0.10.0","1","2","demographics","gender","0","0","0","0","0","0","female","1","4609","0"
"224","041318","20:27:06","6","35155488","4.0.10.0","1","1","demographics","age","0","0","0","0","0","0","52","1","8012","0"
"225","041318","20:27:06","6","35155488","4.0.10.0","1","2","demographics","gender","0","0","0","0","0","0","Male","1","5658","0"
"226","041318","20:28:19","5","616623005","4.0.10.0","1","1","demographics","age","0","0","0","0","0","0","24 ","1","4568","0"
"227","041318","20:28:19","5","616623005","4.0.10.0","1","2","demographics","gender","0","0","0","0","0","0","female","1","4383","0"
"228","041318","15:28:09","8","508358502","4.0.10.0","1","1","demographics","age","0","0","0","0","0","0","18","1","14666","0"
"229","041318","15:28:09","8","508358502","4.0.10.0","1","2","demographics","gender","0","0","0","0","0","0","Male","1","5066","0"
"230","041318","20:28:30","1","388399433","4.0.10.0","1","1","demographics","age","0","0","0","0","0","0","44","1","3096","0"
"231","041318","20:28:30","1","388399433","4.0.10.0","1","2","demographics","gender","0","0","0","0","0","0","Female","1","5351","0"
"232","041318","15:29:44","2","910709565","4.0.10.0","1","1","demographics","age","0","0","0","0","0","0","40","1","8833","0"
"233","041318","15:29:44","2","910709565","4.0.10.0","1","2","demographics","gender","0","0","0","0","0","0","male","1","8551","0"
"234","041318","20:30:29","5","775923536","4.0.10.0","1","1","demographics","age","0","0","0","0","0","0","39","1","5409","0"
"235","041318","20:30:29","5","775923536","4.0.10.0","1","2","demographics","gender","0","0","0","0","0","0","Female","1","8169","0"
"236","041318","15:25:56","1","773667785","4.0.10.0","1","1","demographics","age","0","0","0","0","0","0","32","1","4117","0"
"237","041318","15:25:56","1","773667785","4.0.10.0","1","2","demographics","gender","0","0","0","0","0","0","Male","1","3185","0"
"238","041318","15:17:21","1","119258866","4.0.10.0","1","1","demographics","age","0","0","0","0","0","0","46","1","23962","0"
"239","041318","15:17:21","1","119258866","4.0.10.0","1","2","demographics","gender","0","0","0","0","0","0","male","1","49742","0"
"240","041318","20:32:36","3","364027369","4.0.10.0","1","1","demographics","age","0","0","0","0","0","0","44","1","4560","0"
"241","041318","20:32:36","3","364027369","4.0.10.0","1","2","demographics","gender","0","0","0","0","0","0","female","1","8828","0"
"242","041318","15:30:47","4","976684141","4.0.10.0","1","1","demographics","age","0","0","0","0","0","0","38","1","5448","0"
"243","041318","15:30:47","4","976684141","4.0.10.0","1","2","demographics","gender","0","0","0","0","0","0","male","1","5269","0"
"244","041318","12:33:21","8","233138542","4.0.10.0","1","1","demographics","age","0","0","0","0","0","0","18","1","4006","0"
"245","041318","12:33:21","8","233138542","4.0.10.0","1","2","demographics","gender","0","0","0","0","0","0","male","1","2537","0"
"246","041318","11:33:11","3","722910150","4.0.10.0","1","1","demographics","age","0","0","0","0","0","0","26","1","8058","0"
"247","041318","11:33:11","3","722910150","4.0.10.0","1","2","demographics","gender","0","0","0","0","0","0","Female","1","5765","0"
"248","041318","20:34:07","6","510318847","4.0.10.0","1","1","demographics","age","0","0","0","0","0","0","39","1","3776","0"
"249","041318","20:34:07","6","510318847","4.0.10.0","1","2","demographics","gender","0","0","0","0","0","0","Female","1","3895","0"
"250","041318","20:34:35","5","623699005","4.0.10.0","1","1","demographics","age","0","0","0","0","0","0","24","1","13151","0"
"251","041318","20:34:35","5","623699005","4.0.10.0","1","2","demographics","gender","0","0","0","0","0","0","female","1","5982","0"
"252","041318","15:34:53","1","445551724","4.0.10.0","1","1","demographics","age","0","0","0","0","0","0","41","1","4874","0"
"253","041318","15:34:53","1","445551724","4.0.10.0","1","2","demographics","gender","0","0","0","0","0","0","Male","1","5925","0"
"254","041318","20:36:30","7","184209640","4.0.10.0","1","1","demographics","age","0","0","0","0","0","0","31","1","6758","0"
"255","041318","20:36:30","7","184209640","4.0.10.0","1","2","demographics","gender","0","0","0","0","0","0","female","1","5836","0"
"256","041318","20:38:50","8","498983412","4.0.10.0","1","1","demographics","age","0","0","0","0","0","0","37","1","5696","0"
"257","041318","20:38:50","8","498983412","4.0.10.0","1","2","demographics","gender","0","0","0","0","0","0","male","1","4434","0"
"258","041318","20:40:33","1","868161280","4.0.10.0","1","1","demographics","age","0","0","0","0","0","0","39","1","5636","0"
"259","041318","20:40:33","1","868161280","4.0.10.0","1","2","demographics","gender","0","0","0","0","0","0","female","1","8142","0"
"260","041318","20:43:43","8","285780293","4.0.10.0","1","1","demographics","age","0","0","0","0","0","0","37","1","4619","0"
"261","041318","20:43:43","8","285780293","4.0.10.0","1","2","demographics","gender","0","0","0","0","0","0","Female","1","5610","0"
"262","041318","15:44:01","4","874928319","4.0.10.0","1","1","demographics","age","0","0","0","0","0","0","27","1","5680","0"
"263","041318","15:44:01","4","874928319","4.0.10.0","1","2","demographics","gender","0","0","0","0","0","0","male","1","7575","0"
"264","041318","15:44:34","5","357833947","4.0.10.0","1","1","demographics","age","0","0","0","0","0","0","42","1","23015","0"
"265","041318","15:44:34","5","357833947","4.0.10.0","1","2","demographics","gender","0","0","0","0","0","0","male","1","6928","0"
"266","041318","20:46:24","7","856223037","4.0.10.0","1","1","demographics","age","0","0","0","0","0","0","19","1","5529","0"
"267","041318","20:46:24","7","856223037","4.0.10.0","1","2","demographics","gender","0","0","0","0","0","0","male","1","2539","0"
"268","041318","20:46:49","6","654828403","4.0.10.0","1","1","demographics","age","0","0","0","0","0","0","29 ","1","6111","0"
"269","041318","20:46:49","6","654828403","4.0.10.0","1","2","demographics","gender","0","0","0","0","0","0","male","1","3231","0"
"270","041318","20:47:56","1","106891760","4.0.10.0","1","1","demographics","age","0","0","0","0","0","0","38","1","4567","0"
"271","041318","20:47:56","1","106891760","4.0.10.0","1","2","demographics","gender","0","0","0","0","0","0","female","1","5457","0"
"272","041318","20:48:06","2","916705010","4.0.10.0","1","1","demographics","age","0","0","0","0","0","0","37","1","3977","0"
"273","041318","20:48:06","2","916705010","4.0.10.0","1","2","demographics","gender","0","0","0","0","0","0","Male","1","3588","0"
"274","041318","20:48:01","6","884023079","4.0.10.0","1","1","demographics","age","0","0","0","0","0","0","28 ","1","4209","0"
"275","041318","20:48:01","6","884023079","4.0.10.0","1","2","demographics","gender","0","0","0","0","0","0","Male","1","3553","0"
"276","041318","12:48:50","5","529922704","4.0.10.0","1","1","demographics","age","0","0","0","0","0","0","19 ","1","8578","0"
"277","041318","12:48:50","5","529922704","4.0.10.0","1","2","demographics","gender","0","0","0","0","0","0","Male","1","9350","0"
"278","041318","20:52:25","4","751941141","4.0.10.0","1","1","demographics","age","0","0","0","0","0","0","50","1","4770","0"
"279","041318","20:52:25","4","751941141","4.0.10.0","1","2","demographics","gender","0","0","0","0","0","0","male","1","5690","0"
"280","041318","12:52:53","3","584916902","4.0.10.0","1","1","demographics","age","0","0","0","0","0","0","46","1","7422","0"
"281","041318","12:52:53","3","584916902","4.0.10.0","1","2","demographics","gender","0","0","0","0","0","0","Male","1","8046","0"
"282","041318","14:51:07","3","512402392","4.0.10.0","1","1","demographics","age","0","0","0","0","0","0","57","1","6391","0"
"283","041318","14:51:07","3","512402392","4.0.10.0","1","2","demographics","gender","0","0","0","0","0","0","Female","1","4644","0"
"284","041318","14:55:48","2","217157613","4.0.10.0","1","1","demographics","age","0","0","0","0","0","0","45","1","6535","0"
"285","041318","14:55:48","2","217157613","4.0.10.0","1","2","demographics","gender","0","0","0","0","0","0","female","1","4985","0"
"286","041318","14:55:46","3","69472683","4.0.10.0","1","1","demographics","age","0","0","0","0","0","0","33 ","1","30203","0"
"287","041318","14:55:46","3","69472683","4.0.10.0","1","2","demographics","gender","0","0","0","0","0","0","Female","1","4514","0"
"288","041318","12:56:43","8","551859719","4.0.10.0","1","1","demographics","age","0","0","0","0","0","0","31","1","4272","0"
"289","041318","12:56:43","8","551859719","4.0.10.0","1","2","demographics","gender","0","0","0","0","0","0","Female","1","4101","0"
"290","041318","20:58:21","5","890059509","4.0.10.0","1","1","demographics","age","0","0","0","0","0","0","63","1","11989","0"
"291","041318","20:58:21","5","890059509","4.0.10.0","1","2","demographics","gender","0","0","0","0","0","0","female","1","9797","0"
"292","041318","12:58:10","8","358852524","4.0.10.0","1","1","demographics","age","0","0","0","0","0","0","29","1","4776","0"
"293","041318","12:58:10","8","358852524","4.0.10.0","1","2","demographics","gender","0","0","0","0","0","0","female","1","3332","0"
"294","041318","15:58:55","6","299510817","4.0.10.0","1","1","demographics","age","0","0","0","0","0","0","52","1","3431","0"
"295","041318","15:58:55","6","299510817","4.0.10.0","1","2","demographics","gender","0","0","0","0","0","0","Male","1","3880","0"
"296","041318","15:59:23","2","335414447","4.0.10.0","1","1","demographics","age","0","0","0","0","0","0","21","1","3985","0"
"297","041318","15:59:23","2","335414447","4.0.10.0","1","2","demographics","gender","0","0","0","0","0","0","Male","1","4900","0"
"298","041318","15:58:55","7","623330752","4.0.10.0","1","1","demographics","age","0","0","0","0","0","0","42","1","6021","0"
"299","041318","15:58:55","7","623330752","4.0.10.0","1","2","demographics","gender","0","0","0","0","0","0","male","1","27535","0"
"300","041318","16:01:30","3","688482992","4.0.10.0","1","1","demographics","age","0","0","0","0","0","0","24 ","1","3185","0"
"301","041318","16:01:30","3","688482992","4.0.10.0","1","2","demographics","gender","0","0","0","0","0","0","FEMALE","1","1715","0"
"302","041318","21:00:32","8","590508781","4.0.10.0","1","1","demographics","age","0","0","0","0","0","0","25 ","1","4753","0"
"303","041318","21:00:32","8","590508781","4.0.10.0","1","2","demographics","gender","0","0","0","0","0","0","female","1","8058","0"
"304","041318","15:00:29","7","170427007","4.0.10.0","1","1","demographics","age","0","0","0","0","0","0","44","1","12728","0"
"305","041318","15:00:29","7","170427007","4.0.10.0","1","2","demographics","gender","0","0","0","0","0","0","female","1","6423","0"
"306","041318","21:01:27","6","510630059","4.0.10.0","1","1","demographics","age","0","0","0","0","0","0","19","1","5344","0"
"307","041318","21:01:27","6","510630059","4.0.10.0","1","2","demographics","gender","0","0","0","0","0","0","male","1","2897","0"
"308","041318","21:03:11","5","493145820","4.0.10.0","1","1","demographics","age","0","0","0","0","0","0","36","1","3615","0"
"309","041318","21:03:11","5","493145820","4.0.10.0","1","2","demographics","gender","0","0","0","0","0","0","male","1","4008","0"
"310","041318","13:03:14","1","590882837","4.0.10.0","1","1","demographics","age","0","0","0","0","0","0","42","1","7345","0"
"311","041318","13:03:14","1","590882837","4.0.10.0","1","2","demographics","gender","0","0","0","0","0","0","male","1","5935","0"
"312","041318","21:08:53","5","338205134","4.0.10.0","1","1","demographics","age","0","0","0","0","0","0","37","1","5190","0"
"313","041318","21:08:53","5","338205134","4.0.10.0","1","2","demographics","gender","0","0","0","0","0","0","female","1","7679","0"
"314","041318","21:08:05","8","292775163","4.0.10.0","1","1","demographics","age","0","0","0","0","0","0","32","1","6221","0"
"315","041318","21:08:05","8","292775163","4.0.10.0","1","2","demographics","gender","0","0","0","0","0","0","female","1","3698","0"
"316","041318","21:09:32","2","472584680","4.0.10.0","1","1","demographics","age","0","0","0","0","0","0","33","1","7973","0"
"317","041318","21:09:32","2","472584680","4.0.10.0","1","2","demographics","gender","0","0","0","0","0","0","female","1","5644","0"
"318","041318","16:11:13","6","754325798","4.0.10.0","1","1","demographics","age","0","0","0","0","0","0","34","1","7184","0"
"319","041318","16:11:13","6","754325798","4.0.10.0","1","2","demographics","gender","0","0","0","0","0","0","Female","1","4642","0"
"320","041318","21:11:21","2","631866447","4.0.10.0","1","1","demographics","age","0","0","0","0","0","0","60","1","22124","0"
"321","041318","21:11:21","2","631866447","4.0.10.0","1","2","demographics","gender","0","0","0","0","0","0","Male","1","3636","0"
"322","041318","13:10:27","1","803208871","4.0.10.0","1","1","demographics","age","0","0","0","0","0","0","24 ","1","16337","0"
"323","041318","13:10:27","1","803208871","4.0.10.0","1","2","demographics","gender","0","0","0","0","0","0","female","1","39512","0"
"324","041318","21:13:38","2","142042644","4.0.10.0","1","1","demographics","age","0","0","0","0","0","0","34","1","3487","0"
"325","041318","21:13:38","2","142042644","4.0.10.0","1","2","demographics","gender","0","0","0","0","0","0","female","1","5241","0"
"326","041318","21:14:13","3","433615812","4.0.10.0","1","1","demographics","age","0","0","0","0","0","0","36","1","3711","0"
"327","041318","21:14:13","3","433615812","4.0.10.0","1","2","demographics","gender","0","0","0","0","0","0","Female","1","4758","0"
"328","041318","21:12:45","7","650740867","4.0.10.0","1","1","demographics","age","0","0","0","0","0","0","37","1","8639","0"
"329","041318","21:12:45","7","650740867","4.0.10.0","1","2","demographics","gender","0","0","0","0","0","0","Female","1","6770","0"
"330","041318","21:14:41","5","170517619","4.0.10.0","1","1","demographics","age","0","0","0","0","0","0","34 ","1","8919","0"
"331","041318","21:14:41","5","170517619","4.0.10.0","1","2","demographics","gender","0","0","0","0","0","0","female","1","5256","0"
"332","041318","16:17:14","4","394214338","4.0.10.0","1","1","demographics","age","0","0","0","0","0","0","41","1","3341","0"
"333","041318","16:17:14","4","394214338","4.0.10.0","1","2","demographics","gender","0","0","0","0","0","0","female","1","2460","0"
"334","041318","15:17:20","4","832135924","4.0.10.0","1","1","demographics","age","0","0","0","0","0","0","58","1","5462","0"
"335","041318","15:17:20","4","832135924","4.0.10.0","1","2","demographics","gender","0","0","0","0","0","0","male","1","4705","0"
"336","041318","16:17:20","2","913472146","4.0.10.0","1","1","demographics","age","0","0","0","0","0","0","24","1","7281","0"
"337","041318","16:17:20","2","913472146","4.0.10.0","1","2","demographics","gender","0","0","0","0","0","0","female","1","3984","0"
"338","041318","22:17:49","6","815726993","4.0.10.0","1","1","demographics","age","0","0","0","0","0","0","32","1","5525","0"
"339","041318","22:17:49","6","815726993","4.0.10.0","1","2","demographics","gender","0","0","0","0","0","0","Male","1","4127","0"
"340","041318","16:17:49","1","901746794","4.0.10.0","1","1","demographics","age","0","0","0","0","0","0","23","1","3313","0"
"341","041318","16:17:49","1","901746794","4.0.10.0","1","2","demographics","gender","0","0","0","0","0","0","female","1","5762","0"
"342","041318","21:19:56","3","902827843","4.0.10.0","1","1","demographics","age","0","0","0","0","0","0","65","1","3940","0"
"343","041318","21:19:56","3","902827843","4.0.10.0","1","2","demographics","gender","0","0","0","0","0","0","female","1","4897","0"
"344","041318","21:20:00","8","344885281","4.0.10.0","1","1","demographics","age","0","0","0","0","0","0","52","1","18525","0"
"345","041318","21:20:00","8","344885281","4.0.10.0","1","2","demographics","gender","0","0","0","0","0","0","female","1","7329","0"
"346","041318","15:22:12","6","341993925","4.0.10.0","1","1","demographics","age","0","0","0","0","0","0","51","1","9736","0"
"347","041318","15:22:12","6","341993925","4.0.10.0","1","2","demographics","gender","0","0","0","0","0","0","male","1","7165","0"
"348","041318","21:24:47","8","603568106","4.0.10.0","1","1","demographics","age","0","0","0","0","0","0","37","1","5997","0"
"349","041318","21:24:47","8","603568106","4.0.10.0","1","2","demographics","gender","0","0","0","0","0","0","male","1","6264","0"
"350","041318","16:26:10","2","534208930","4.0.10.0","1","1","demographics","age","0","0","0","0","0","0","41","1","4654","0"
"351","041318","16:26:10","2","534208930","4.0.10.0","1","2","demographics","gender","0","0","0","0","0","0","female","1","2440","0"
"352","041318","21:26:43","1","46122356","4.0.10.0","1","1","demographics","age","0","0","0","0","0","0","32","1","10677","0"
"353","041318","21:26:43","1","46122356","4.0.10.0","1","2","demographics","gender","0","0","0","0","0","0","female","1","4356","0"
"354","041318","13:26:44","3","275625584","4.0.10.0","1","1","demographics","age","0","0","0","0","0","0","25","1","6547","0"
"355","041318","13:26:44","3","275625584","4.0.10.0","1","2","demographics","gender","0","0","0","0","0","0","female","1","4861","0"
"356","041318","21:28:06","7","301126861","4.0.10.0","1","1","demographics","age","0","0","0","0","0","0","35  ","1","12472","0"
"357","041318","21:28:06","7","301126861","4.0.10.0","1","2","demographics","gender","0","0","0","0","0","0","Male","1","5027","0"
"358","041318","16:28:16","8","657581302","4.0.10.0","1","1","demographics","age","0","0","0","0","0","0","42","1","8582","0"
"359","041318","16:28:16","8","657581302","4.0.10.0","1","2","demographics","gender","0","0","0","0","0","0","Female","1","5997","0"
"360","041318","21:28:42","6","701329033","4.0.10.0","1","1","demographics","age","0","0","0","0","0","0","60","1","12583","0"
"361","041318","21:28:42","6","701329033","4.0.10.0","1","2","demographics","gender","0","0","0","0","0","0","female","1","5746","0"
"362","041318","21:30:08","6","701329033","4.0.10.0","1","1","demographics","age","0","0","0","0","0","0","22","1","5111","0"
"363","041318","21:30:08","6","701329033","4.0.10.0","1","2","demographics","gender","0","0","0","0","0","0","female","1","6735","0"
"364","041318","21:30:26","4","395182951","4.0.10.0","1","1","demographics","age","0","0","0","0","0","0","57","1","5599","0"
"365","041318","21:30:26","4","395182951","4.0.10.0","1","2","demographics","gender","0","0","0","0","0","0","female","1","5972","0"
"366","041318","16:31:39","3","677521782","4.0.10.0","1","1","demographics","age","0","0","0","0","0","0","21","1","3540","0"
"367","041318","16:31:39","3","677521782","4.0.10.0","1","2","demographics","gender","0","0","0","0","0","0","Male ","1","5889","0"
"368","041318","13:31:59","6","509722057","4.0.10.0","1","1","demographics","age","0","0","0","0","0","0","63","1","4806","0"
"369","041318","13:31:59","6","509722057","4.0.10.0","1","2","demographics","gender","0","0","0","0","0","0","female","1","9469","0"
"370","041318","21:35:48","3","869435036","4.0.10.0","1","1","demographics","age","0","0","0","0","0","0","25","1","4194","0"
"371","041318","21:35:48","3","869435036","4.0.10.0","1","2","demographics","gender","0","0","0","0","0","0","female","1","3464","0"
"372","041318","15:36:32","6","360350912","4.0.10.0","1","1","demographics","age","0","0","0","0","0","0","33","1","2343","0"
"373","041318","15:36:32","6","360350912","4.0.10.0","1","2","demographics","gender","0","0","0","0","0","0","male","1","2930","0"
"374","041318","21:38:50","3","618560763","4.0.10.0","1","1","demographics","age","0","0","0","0","0","0","18 ","1","6854","0"
"375","041318","21:38:50","3","618560763","4.0.10.0","1","2","demographics","gender","0","0","0","0","0","0","Female","1","4615","0"
"376","041318","13:38:57","7","993048628","4.0.10.0","1","1","demographics","age","0","0","0","0","0","0","42","1","7684","0"
"377","041318","13:38:57","7","993048628","4.0.10.0","1","2","demographics","gender","0","0","0","0","0","0","male","1","10762","0"
"378","041318","16:39:56","1","866702155","4.0.10.0","1","1","demographics","age","0","0","0","0","0","0","22","1","8474","0"
"379","041318","16:39:56","1","866702155","4.0.10.0","1","2","demographics","gender","0","0","0","0","0","0","female","1","4121","0"
"380","041318","21:40:38","2","775065202","4.0.10.0","1","1","demographics","age","0","0","0","0","0","0","31","1","7535","0"
"381","041318","21:40:38","2","775065202","4.0.10.0","1","2","demographics","gender","0","0","0","0","0","0","Male","1","5001","0"
"382","041318","21:41:06","6","203269528","4.0.10.0","1","1","demographics","age","0","0","0","0","0","0","57","1","4174","0"
"383","041318","21:41:06","6","203269528","4.0.10.0","1","2","demographics","gender","0","0","0","0","0","0","Male","1","4691","0"
"384","041318","21:41:17","7","799541504","4.0.10.0","1","1","demographics","age","0","0","0","0","0","0","41","1","8249","0"
"385","041318","21:41:17","7","799541504","4.0.10.0","1","2","demographics","gender","0","0","0","0","0","0","female","1","6709","0"
"386","041318","15:41:27","8","379858517","4.0.10.0","1","1","demographics","age","0","0","0","0","0","0","25","1","5110","0"
"387","041318","15:41:27","8","379858517","4.0.10.0","1","2","demographics","gender","0","0","0","0","0","0","Male","1","11470","0"
"388","041318","21:41:23","4","931329471","4.0.10.0","1","1","demographics","age","0","0","0","0","0","0","25  ","1","13276","0"
"389","041318","21:41:23","4","931329471","4.0.10.0","1","2","demographics","gender","0","0","0","0","0","0","Female","1","5507","0"
"390","041318","21:42:43","5","527478740","4.0.10.0","1","1","demographics","age","0","0","0","0","0","0","56","1","11477","0"
"391","041318","21:42:43","5","527478740","4.0.10.0","1","2","demographics","gender","0","0","0","0","0","0","male","1","8588","0"
"392","041318","16:41:04","5","297379570","4.0.10.0","1","1","demographics","age","0","0","0","0","0","0","54","1","5071","0"
"393","041318","16:41:04","5","297379570","4.0.10.0","1","2","demographics","gender","0","0","0","0","0","0","female","1","6188","0"
"394","041318","16:44:19","1","308076154","4.0.10.0","1","1","demographics","age","0","0","0","0","0","0","39","1","3962","0"
"395","041318","16:44:19","1","308076154","4.0.10.0","1","2","demographics","gender","0","0","0","0","0","0","Male","1","4171","0"
"396","041318","16:44:51","5","297379570","4.0.10.0","1","1","demographics","age","0","0","0","0","0","0","54","1","4292","0"
"397","041318","16:44:51","5","297379570","4.0.10.0","1","2","demographics","gender","0","0","0","0","0","0","female","1","4967","0"
"398","041318","21:45:59","6","132134142","4.0.10.0","1","1","demographics","age","0","0","0","0","0","0","29","1","6264","0"
"399","041318","21:45:59","6","132134142","4.0.10.0","1","2","demographics","gender","0","0","0","0","0","0","female","1","4201","0"
"400","041318","13:18:30","8","236983681","4.0.10.0","1","1","demographics","age","0","0","0","0","0","0","28","1","9334","0"
"401","041318","13:18:30","8","236983681","4.0.10.0","1","2","demographics","gender","0","0","0","0","0","0","female","1","8646","0"
"402","041318","21:44:58","2","291323111","4.0.10.0","1","1","demographics","age","0","0","0","0","0","0","56","1","4490","0"
"403","041318","21:44:58","2","291323111","4.0.10.0","1","2","demographics","gender","0","0","0","0","0","0","male","1","5092","0"
"404","041318","13:20:08","8","236983681","4.0.10.0","1","1","demographics","age","0","0","0","0","0","0","28","1","13504","0"
"405","041318","13:20:08","8","236983681","4.0.10.0","1","2","demographics","gender","0","0","0","0","0","0","female","1","4668","0"
"406","041318","16:47:34","2","135131748","4.0.10.0","1","1","demographics","age","0","0","0","0","0","0","23","1","5031","0"
"407","041318","16:47:34","2","135131748","4.0.10.0","1","2","demographics","gender","0","0","0","0","0","0","male","1","3023","0"
"408","041318","21:47:55","7","783403551","4.0.10.0","1","1","demographics","age","0","0","0","0","0","0","32","1","7566","0"
"409","041318","21:47:55","7","783403551","4.0.10.0","1","2","demographics","gender","0","0","0","0","0","0","male","1","5723","0"
"410","041318","21:46:41","4","368314325","4.0.10.0","1","1","demographics","age","0","0","0","0","0","0","40","1","7645","0"
"411","041318","21:46:41","4","368314325","4.0.10.0","1","2","demographics","gender","0","0","0","0","0","0","male","1","6193","0"
"412","041318","21:48:45","7","293509812","4.0.10.0","1","1","demographics","age","0","0","0","0","0","0","47","1","18173","0"
"413","041318","21:48:45","7","293509812","4.0.10.0","1","2","demographics","gender","0","0","0","0","0","0","Male","1","5679","0"
"414","041318","16:48:15","5","917643929","4.0.10.0","1","1","demographics","age","0","0","0","0","0","0","66","1","3781","0"
"415","041318","16:48:15","5","917643929","4.0.10.0","1","2","demographics","gender","0","0","0","0","0","0","Male","1","6619","0"
"416","041318","21:51:56","6","352023639","4.0.10.0","1","1","demographics","age","0","0","0","0","0","0","52","1","4014","0"
"417","041318","21:51:56","6","352023639","4.0.10.0","1","2","demographics","gender","0","0","0","0","0","0","female","1","4971","0"
"418","041318","21:52:04","7","952333584","4.0.10.0","1","1","demographics","age","0","0","0","0","0","0","29","1","5125","0"
"419","041318","21:52:04","7","952333584","4.0.10.0","1","2","demographics","gender","0","0","0","0","0","0","female","1","5645","0"
"420","041318","15:52:30","2","636792084","4.0.10.0","1","1","demographics","age","0","0","0","0","0","0","42","1","5737","0"
"421","041318","15:52:30","2","636792084","4.0.10.0","1","2","demographics","gender","0","0","0","0","0","0","Female","1","5644","0"
"422","041318","21:52:42","4","732229784","4.0.10.0","1","1","demographics","age","0","0","0","0","0","0","25","1","9695","0"
"423","041318","21:52:42","4","732229784","4.0.10.0","1","2","demographics","gender","0","0","0","0","0","0","Male","1","4399","0"
"424","041318","21:54:48","8","136910715","4.0.10.0","1","1","demographics","age","0","0","0","0","0","0","43","1","3952","0"
"425","041318","21:54:48","8","136910715","4.0.10.0","1","2","demographics","gender","0","0","0","0","0","0","male","1","4853","0"
"426","041318","21:54:54","5","636847803","4.0.10.0","1","1","demographics","age","0","0","0","0","0","0","36","1","8899","0"
"427","041318","21:54:54","5","636847803","4.0.10.0","1","2","demographics","gender","0","0","0","0","0","0","Female","1","5195","0"
"428","041318","21:55:48","1","594682551","4.0.10.0","1","1","demographics","age","0","0","0","0","0","0","48","1","6585","0"
"429","041318","21:55:48","1","594682551","4.0.10.0","1","2","demographics","gender","0","0","0","0","0","0","female","1","5846","0"
"430","041318","21:57:10","1","594682551","4.0.10.0","1","1","demographics","age","0","0","0","0","0","0","48","1","5428","0"
"431","041318","21:57:10","1","594682551","4.0.10.0","1","2","demographics","gender","0","0","0","0","0","0","female","1","4570","0"
"432","041318","21:56:41","7","573713595","4.0.10.0","1","1","demographics","age","0","0","0","0","0","0","37","1","4072","0"
"433","041318","21:56:41","7","573713595","4.0.10.0","1","2","demographics","gender","0","0","0","0","0","0","female","1","7981","0"
"434","041318","22:02:27","3","76608862","4.0.10.0","1","1","demographics","age","0","0","0","0","0","0","23","1","11022","0"
"435","041318","22:02:27","3","76608862","4.0.10.0","1","2","demographics","gender","0","0","0","0","0","0","female","1","4891","0"
"436","041318","22:03:24","4","427662069","4.0.10.0","1","1","demographics","age","0","0","0","0","0","0","51","1","6451","0"
"437","041318","22:03:24","4","427662069","4.0.10.0","1","2","demographics","gender","0","0","0","0","0","0","female","1","6248","0"
"438","041318","13:38:22","4","348914134","4.0.10.0","1","1","demographics","age","0","0","0","0","0","0","28","1","8883","0"
"439","041318","13:38:22","4","348914134","4.0.10.0","1","2","demographics","gender","0","0","0","0","0","0","female","1","9214","0"
"440","041318","17:05:49","8","334319290","4.0.10.0","1","1","demographics","age","0","0","0","0","0","0","41","1","8014","0"
"441","041318","17:05:49","8","334319290","4.0.10.0","1","2","demographics","gender","0","0","0","0","0","0","male","1","5908","0"
"442","041318","17:07:20","7","209248199","4.0.10.0","1","1","demographics","age","0","0","0","0","0","0","18","1","6742","0"
"443","041318","17:07:20","7","209248199","4.0.10.0","1","2","demographics","gender","0","0","0","0","0","0","male","1","3365","0"
"444","041318","22:08:14","4","473404454","4.0.10.0","1","1","demographics","age","0","0","0","0","0","0","44","1","4105","0"
"445","041318","22:08:14","4","473404454","4.0.10.0","1","2","demographics","gender","0","0","0","0","0","0","female","1","6179","0"
"446","041318","17:11:20","5","359403198","4.0.10.0","1","1","demographics","age","0","0","0","0","0","0","52 ","1","5315","0"
"447","041318","17:11:20","5","359403198","4.0.10.0","1","2","demographics","gender","0","0","0","0","0","0","female","1","4703","0"
"448","041318","17:13:24","7","352811895","4.0.10.0","1","1","demographics","age","0","0","0","0","0","0","35","1","8239","0"
"449","041318","17:13:24","7","352811895","4.0.10.0","1","2","demographics","gender","0","0","0","0","0","0","male","1","7209","0"
"450","041318","22:14:23","1","890183240","4.0.10.0","1","1","demographics","age","0","0","0","0","0","0","26","1","2788","0"
"451","041318","22:14:23","1","890183240","4.0.10.0","1","2","demographics","gender","0","0","0","0","0","0","Male","1","6072","0"
"452","041318","14:14:20","6","192468605","4.0.10.0","1","1","demographics","age","0","0","0","0","0","0","27","1","4857","0"
"453","041318","14:14:20","6","192468605","4.0.10.0","1","2","demographics","gender","0","0","0","0","0","0","female","1","4238","0"
"454","041318","14:16:02","2","243683755","4.0.10.0","1","1","demographics","age","0","0","0","0","0","0","20","1","4920","0"
"455","041318","14:16:02","2","243683755","4.0.10.0","1","2","demographics","gender","0","0","0","0","0","0","Male","1","3790","0"
"456","041318","17:18:17","6","275081757","4.0.10.0","1","1","demographics","age","0","0","0","0","0","0","31","1","4623","0"
"457","041318","17:18:17","6","275081757","4.0.10.0","1","2","demographics","gender","0","0","0","0","0","0","Male","1","3540","0"
"458","041318","22:18:56","5","156896642","4.0.10.0","1","1","demographics","age","0","0","0","0","0","0","44","1","3987","0"
"459","041318","22:18:56","5","156896642","4.0.10.0","1","2","demographics","gender","0","0","0","0","0","0","female","1","3707","0"
"460","041318","22:16:14","4","665775209","4.0.10.0","1","1","demographics","age","0","0","0","0","0","0","42","1","11431","0"
"461","041318","22:16:14","4","665775209","4.0.10.0","1","2","demographics","gender","0","0","0","0","0","0","female","1","6614","0"
"462","041318","13:55:43","7","993048628","4.0.10.0","1","1","demographics","age","0","0","0","0","0","0","42 ","1","14647","0"
"463","041318","13:55:43","7","993048628","4.0.10.0","1","2","demographics","gender","0","0","0","0","0","0","MALE","1","6537","0"
"464","041318","22:22:20","8","143542488","4.0.10.0","1","1","demographics","age","0","0","0","0","0","0","44","1","7044","0"
"465","041318","22:22:20","8","143542488","4.0.10.0","1","2","demographics","gender","0","0","0","0","0","0","Male","1","5368","0"
"466","041318","22:28:28","4","95719706","4.0.10.0","1","1","demographics","age","0","0","0","0","0","0","27","1","6510","0"
"467","041318","22:28:28","4","95719706","4.0.10.0","1","2","demographics","gender","0","0","0","0","0","0","Male","1","4053","0"
"468","041318","17:29:34","8","442642046","4.0.10.0","1","1","demographics","age","0","0","0","0","0","0","23","1","7644","0"
"469","041318","17:29:34","8","442642046","4.0.10.0","1","2","demographics","gender","0","0","0","0","0","0","Male","1","3557","0"
"470","041318","14:29:48","5","499294609","4.0.10.0","1","1","demographics","age","0","0","0","0","0","0","60","1","6781","0"
"471","041318","14:29:48","5","499294609","4.0.10.0","1","2","demographics","gender","0","0","0","0","0","0","MALE","1","8066","0"
"472","041318","14:30:07","7","993048628","4.0.10.0","1","1","demographics","age","0","0","0","0","0","0","42","1","3469","0"
"473","041318","14:30:07","7","993048628","4.0.10.0","1","2","demographics","gender","0","0","0","0","0","0","male","1","5914","0"
"474","041318","22:31:25","4","803542216","4.0.10.0","1","1","demographics","age","0","0","0","0","0","0","63","1","5936","0"
"475","041318","22:31:25","4","803542216","4.0.10.0","1","2","demographics","gender","0","0","0","0","0","0","male","1","7272","0"
"476","041318","22:30:42","6","650166328","4.0.10.0","1","1","demographics","age","0","0","0","0","0","0","21 ","1","4941","0"
"477","041318","22:30:42","6","650166328","4.0.10.0","1","2","demographics","gender","0","0","0","0","0","0","Male","1","4925","0"
"478","041318","15:34:24","2","341550014","4.0.10.0","1","1","demographics","age","0","0","0","0","0","0","39","1","6008","0"
"479","041318","15:34:24","2","341550014","4.0.10.0","1","2","demographics","gender","0","0","0","0","0","0","male","1","2949","0"
"480","041318","17:38:35","7","164550743","4.0.10.0","1","1","demographics","age","0","0","0","0","0","0","21","1","5770","0"
"481","041318","17:38:35","7","164550743","4.0.10.0","1","2","demographics","gender","0","0","0","0","0","0","Female","1","4680","0"
"482","041318","16:41:11","2","32599867","4.0.10.0","1","1","demographics","age","0","0","0","0","0","0","53","1","6340","0"
"483","041318","16:41:11","2","32599867","4.0.10.0","1","2","demographics","gender","0","0","0","0","0","0","Female","1","3812","0"
"484","041318","17:42:06","1","991875699","4.0.10.0","1","1","demographics","age","0","0","0","0","0","0","19","1","7213","0"
"485","041318","17:42:06","1","991875699","4.0.10.0","1","2","demographics","gender","0","0","0","0","0","0","m","1","2358","0"
"486","041318","22:42:24","6","989661499","4.0.10.0","1","1","demographics","age","0","0","0","0","0","0","29","1","4365","0"
"487","041318","22:42:24","6","989661499","4.0.10.0","1","2","demographics","gender","0","0","0","0","0","0","Female","1","5222","0"
"488","041318","17:43:07","3","4782910","4.0.10.0","1","1","demographics","age","0","0","0","0","0","0","38","1","4758","0"
"489","041318","17:43:07","3","4782910","4.0.10.0","1","2","demographics","gender","0","0","0","0","0","0","m","1","2498","0"
"490","041318","17:46:05","8","121550054","4.0.10.0","1","1","demographics","age","0","0","0","0","0","0","28 ","1","4663","0"
"491","041318","17:46:05","8","121550054","4.0.10.0","1","2","demographics","gender","0","0","0","0","0","0","female","1","5291","0"
"492","041318","22:47:39","1","524937811","4.0.10.0","1","1","demographics","age","0","0","0","0","0","0","37","1","7108","0"
"493","041318","22:47:39","1","524937811","4.0.10.0","1","2","demographics","gender","0","0","0","0","0","0","Male","1","4844","0"
"494","041418","07:49:50","3","437966026","4.0.10.0","1","1","demographics","age","0","0","0","0","0","0","26","1","4715","0"
"495","041418","07:49:50","3","437966026","4.0.10.0","1","2","demographics","gender","0","0","0","0","0","0","female","1","3401","0"
"496","041318","22:49:18","2","974899840","4.0.10.0","1","1","demographics","age","0","0","0","0","0","0","32","1","9110","0"
"497","041318","22:49:18","2","974899840","4.0.10.0","1","2","demographics","gender","0","0","0","0","0","0","female","1","3377","0"
"498","041318","17:52:45","5","912437595","4.0.10.0","1","1","demographics","age","0","0","0","0","0","0","35","1","3897","0"
"499","041318","17:52:45","5","912437595","4.0.10.0","1","2","demographics","gender","0","0","0","0","0","0","m","1","3187","0"
"500","041318","22:53:17","8","436594691","4.0.10.0","1","1","demographics","age","0","0","0","0","0","0","36","1","6764","0"
"501","041318","22:53:17","8","436594691","4.0.10.0","1","2","demographics","gender","0","0","0","0","0","0","female","1","4984","0"
"502","041318","22:53:49","1","186625632","4.0.10.0","1","1","demographics","age","0","0","0","0","0","0","34","1","3803","0"
"503","041318","22:53:49","1","186625632","4.0.10.0","1","2","demographics","gender","0","0","0","0","0","0","male","1","5847","0"
"504","041318","22:54:26","3","383361592","4.0.10.0","1","1","demographics","age","0","0","0","0","0","0","57","1","9993","0"
"505","041318","22:54:26","3","383361592","4.0.10.0","1","2","demographics","gender","0","0","0","0","0","0","male","1","5327","0"
"506","041318","22:54:41","5","569413659","4.0.10.0","1","1","demographics","age","0","0","0","0","0","0","28","1","6996","0"
"507","041318","22:54:41","5","569413659","4.0.10.0","1","2","demographics","gender","0","0","0","0","0","0","Female","1","4239","0"
"508","041318","22:55:22","3","383361592","4.0.10.0","1","1","demographics","age","0","0","0","0","0","0","57","1","5206","0"
"509","041318","22:55:22","3","383361592","4.0.10.0","1","2","demographics","gender","0","0","0","0","0","0","male","1","9321","0"
"510","041318","22:56:06","6","264311860","4.0.10.0","1","1","demographics","age","0","0","0","0","0","0","25","1","3757","0"
"511","041318","22:56:06","6","264311860","4.0.10.0","1","2","demographics","gender","0","0","0","0","0","0","Male","1","3700","0"
"512","041318","22:55:53","2","738856381","4.0.10.0","1","1","demographics","age","0","0","0","0","0","0","58","1","7476","0"
"513","041318","22:55:53","2","738856381","4.0.10.0","1","2","demographics","gender","0","0","0","0","0","0","female","1","5544","0"
"514","041318","15:00:28","2","491055748","4.0.10.0","1","1","demographics","age","0","0","0","0","0","0","32","1","12027","0"
"515","041318","15:00:28","2","491055748","4.0.10.0","1","2","demographics","gender","0","0","0","0","0","0","m","1","10196","0"
"516","041318","18:01:47","1","170728421","4.0.10.0","1","1","demographics","age","0","0","0","0","0","0","26","1","6599","0"
"517","041318","18:01:47","1","170728421","4.0.10.0","1","2","demographics","gender","0","0","0","0","0","0","Female","1","4636","0"
"518","041318","15:02:25","5","610070130","4.0.10.0","1","1","demographics","age","0","0","0","0","0","0","30","1","4560","0"
"519","041318","15:02:25","5","610070130","4.0.10.0","1","2","demographics","gender","0","0","0","0","0","0","male","1","5025","0"
"520","041318","23:05:41","3","232322329","4.0.10.0","1","1","demographics","age","0","0","0","0","0","0","40","1","5231","0"
"521","041318","23:05:41","3","232322329","4.0.10.0","1","2","demographics","gender","0","0","0","0","0","0","m","1","3472","0"
"522","041318","23:07:12","6","974526156","4.0.10.0","1","1","demographics","age","0","0","0","0","0","0","57","1","4737","0"
"523","041318","23:07:12","6","974526156","4.0.10.0","1","2","demographics","gender","0","0","0","0","0","0","male","1","5196","0"
"524","041318","23:06:32","7","479864629","4.0.10.0","1","1","demographics","age","0","0","0","0","0","0","22","1","5175","0"
"525","041318","23:06:32","7","479864629","4.0.10.0","1","2","demographics","gender","0","0","0","0","0","0","Female","1","4769","0"
"526","041318","16:08:12","3","244725458","4.0.10.0","1","1","demographics","age","0","0","0","0","0","0","26","1","8095","0"
"527","041318","16:08:12","3","244725458","4.0.10.0","1","2","demographics","gender","0","0","0","0","0","0","Male","1","4204","0"
"528","041318","23:11:17","2","727574247","4.0.10.0","1","1","demographics","age","0","0","0","0","0","0","21","1","8152","0"
"529","041318","23:11:17","2","727574247","4.0.10.0","1","2","demographics","gender","0","0","0","0","0","0","female","1","5077","0"
"530","041318","18:11:57","5","101814106","4.0.10.0","1","1","demographics","age","0","0","0","0","0","0","28","1","4755","0"
"531","041318","18:11:57","5","101814106","4.0.10.0","1","2","demographics","gender","0","0","0","0","0","0","female","1","4010","0"
"532","041318","18:15:52","8","356003525","4.0.10.0","1","1","demographics","age","0","0","0","0","0","0","62","1","21409","0"
"533","041318","18:15:52","8","356003525","4.0.10.0","1","2","demographics","gender","0","0","0","0","0","0","Male","1","12798","0"
"534","041318","18:15:47","6","433564844","4.0.10.0","1","1","demographics","age","0","0","0","0","0","0","29 ","1","4318","0"
"535","041318","18:15:47","6","433564844","4.0.10.0","1","2","demographics","gender","0","0","0","0","0","0","female","1","3958","0"
"536","041318","18:16:24","1","692592044","4.0.10.0","1","1","demographics","age","0","0","0","0","0","0","33","1","4823","0"
"537","041318","18:16:24","1","692592044","4.0.10.0","1","2","demographics","gender","0","0","0","0","0","0","Male","1","4657","0"
"538","041318","17:16:12","5","647333306","4.0.10.0","1","1","demographics","age","0","0","0","0","0","0","31","1","6897","0"
"539","041318","17:16:12","5","647333306","4.0.10.0","1","2","demographics","gender","0","0","0","0","0","0","female","1","8127","0"
"540","041318","23:16:03","3","396865635","4.0.10.0","1","1","demographics","age","0","0","0","0","0","0","33","1","5085","0"
"541","041318","23:16:03","3","396865635","4.0.10.0","1","2","demographics","gender","0","0","0","0","0","0","Female","1","7373","0"
"542","041318","18:18:56","2","835376645","4.0.10.0","1","1","demographics","age","0","0","0","0","0","0","37 ","1","7706","0"
"543","041318","18:18:56","2","835376645","4.0.10.0","1","2","demographics","gender","0","0","0","0","0","0","female","1","3743","0"
"544","041318","18:19:34","7","44301785","4.0.10.0","1","1","demographics","age","0","0","0","0","0","0","60","1","5902","0"
"545","041318","18:19:34","7","44301785","4.0.10.0","1","2","demographics","gender","0","0","0","0","0","0","female","1","10475","0"
"546","041318","15:19:33","8","765420181","4.0.10.0","1","1","demographics","age","0","0","0","0","0","0","27","1","8346","0"
"547","041318","15:19:33","8","765420181","4.0.10.0","1","2","demographics","gender","0","0","0","0","0","0","female","1","7224","0"
"548","041318","23:21:14","4","807009309","4.0.10.0","1","1","demographics","age","0","0","0","0","0","0","30","1","2954","0"
"549","041318","23:21:14","4","807009309","4.0.10.0","1","2","demographics","gender","0","0","0","0","0","0","female","1","3426","0"
"550","041318","15:22:51","5","806795175","4.0.10.0","1","1","demographics","age","0","0","0","0","0","0","18","1","3122","0"
"551","041318","15:22:51","5","806795175","4.0.10.0","1","2","demographics","gender","0","0","0","0","0","0","female","1","3490","0"
"552","041318","23:25:28","1","217879621","4.0.10.0","1","1","demographics","age","0","0","0","0","0","0","53 ","1","5575","0"
"553","041318","23:25:28","1","217879621","4.0.10.0","1","2","demographics","gender","0","0","0","0","0","0","female","1","7562","0"
"554","041318","18:26:55","2","432673528","4.0.10.0","1","1","demographics","age","0","0","0","0","0","0","24 ","1","7284","0"
"555","041318","18:26:55","2","432673528","4.0.10.0","1","2","demographics","gender","0","0","0","0","0","0","male","1","3478","0"
"556","041318","23:31:13","6","263959953","4.0.10.0","1","1","demographics","age","0","0","0","0","0","0","40","1","5061","0"
"557","041318","23:31:13","6","263959953","4.0.10.0","1","2","demographics","gender","0","0","0","0","0","0","m","1","2933","0"
"558","041318","23:36:37","2","971111375","4.0.10.0","1","1","demographics","age","0","0","0","0","0","0","59","1","5782","0"
"559","041318","23:36:37","2","971111375","4.0.10.0","1","2","demographics","gender","0","0","0","0","0","0","male","1","4649","0"
"560","041318","23:38:36","2","971111375","4.0.10.0","1","1","demographics","age","0","0","0","0","0","0","59","1","3864","0"
"561","041318","23:38:36","2","971111375","4.0.10.0","1","2","demographics","gender","0","0","0","0","0","0","Male","1","4855","0"
"562","041318","23:39:18","6","712821489","4.0.10.0","1","1","demographics","age","0","0","0","0","0","0","28 ","1","4345","0"
"563","041318","23:39:18","6","712821489","4.0.10.0","1","2","demographics","gender","0","0","0","0","0","0","Male5aa459","1","2982","0"
"564","041318","23:39:56","6","712821489","4.0.10.0","1","1","demographics","age","0","0","0","0","0","0","28","1","2803","0"
"565","041318","23:39:56","6","712821489","4.0.10.0","1","2","demographics","gender","0","0","0","0","0","0","M","1","2056","0"
"566","041318","18:45:57","3","34085521","4.0.10.0","1","1","demographics","age","0","0","0","0","0","0","","1","33757","0"
"567","041318","23:47:40","4","384369698","4.0.10.0","1","1","demographics","age","0","0","0","0","0","0","29","1","10404","0"
"568","041318","23:47:40","4","384369698","4.0.10.0","1","2","demographics","gender","0","0","0","0","0","0","female","1","5146","0"
"569","041318","18:49:50","6","460474350","4.0.10.0","1","1","demographics","age","0","0","0","0","0","0","40","1","8445","0"
"570","041318","18:49:50","6","460474350","4.0.10.0","1","2","demographics","gender","0","0","0","0","0","0","female","1","13494","0"
"571","041318","18:51:18","3","34085521","4.0.10.0","1","1","demographics","age","0","0","0","0","0","0","41 ","1","5134","0"
"572","041318","18:51:18","3","34085521","4.0.10.0","1","2","demographics","gender","0","0","0","0","0","0","Male","1","4617","0"
"573","041318","23:55:15","7","647210487","4.0.10.0","1","1","demographics","age","0","0","0","0","0","0","65","1","8758","0"
"574","041318","23:55:15","7","647210487","4.0.10.0","1","2","demographics","gender","0","0","0","0","0","0","Male","1","6566","0"
"575","041318","16:01:18","6","470688392","4.0.10.0","1","1","demographics","age","0","0","0","0","0","0","48","1","3902","0"
"576","041318","16:01:18","6","470688392","4.0.10.0","1","2","demographics","gender","0","0","0","0","0","0","Male","1","5019","0"
"577","041318","19:02:19","5","245285388","4.0.10.0","1","1","demographics","age","0","0","0","0","0","0","23","1","3529","0"
"578","041318","19:02:19","5","245285388","4.0.10.0","1","2","demographics","gender","0","0","0","0","0","0","Female","1","3886","0"
"579","041418","00:02:11","8","434839109","4.0.10.0","1","1","demographics","age","0","0","0","0","0","0","25","1","4319","0"
"580","041418","00:02:11","8","434839109","4.0.10.0","1","2","demographics","gender","0","0","0","0","0","0","female","1","5451","0"
"581","041418","00:08:36","2","707828647","4.0.10.0","1","1","demographics","age","0","0","0","0","0","0","42","1","5110","0"
"582","041418","00:08:36","2","707828647","4.0.10.0","1","2","demographics","gender","0","0","0","0","0","0","male","1","6170","0"
"583","041318","19:03:23","4","641776334","4.0.10.0","1","1","demographics","age","0","0","0","0","0","0","43","1","11688","0"
"584","041318","19:03:23","4","641776334","4.0.10.0","1","2","demographics","gender","0","0","0","0","0","0","male","1","13299","0"
"585","041318","17:14:04","6","495588217","4.0.10.0","1","1","demographics","age","0","0","0","0","0","0","20","1","5226","0"
"586","041318","17:14:04","6","495588217","4.0.10.0","1","2","demographics","gender","0","0","0","0","0","0","female","1","3408","0"
"587","041318","19:15:17","8","978566590","4.0.10.0","1","1","demographics","age","0","0","0","0","0","0","27 ","1","5999","0"
"588","041318","19:15:17","8","978566590","4.0.10.0","1","2","demographics","gender","0","0","0","0","0","0","Male","1","3582","0"
"589","041318","19:18:20","3","409119403","4.0.10.0","1","1","demographics","age","0","0","0","0","0","0","43 ","1","10226","0"
"590","041318","19:18:20","3","409119403","4.0.10.0","1","2","demographics","gender","0","0","0","0","0","0","male","1","6696","0"
"591","041318","16:17:45","2","504483292","4.0.10.0","1","1","demographics","age","0","0","0","0","0","0","18","1","12237","0"
"592","041318","16:17:45","2","504483292","4.0.10.0","1","2","demographics","gender","0","0","0","0","0","0","Male","1","2806","0"
"593","041318","16:18:02","2","173599777","4.0.10.0","1","1","demographics","age","0","0","0","0","0","0","31","1","4652","0"
"594","041318","16:18:02","2","173599777","4.0.10.0","1","2","demographics","gender","0","0","0","0","0","0","female","1","4030","0"
"595","041318","16:25:51","7","679560096","4.0.10.0","1","1","demographics","age","0","0","0","0","0","0","32","1","5972","0"
"596","041318","16:25:51","7","679560096","4.0.10.0","1","2","demographics","gender","0","0","0","0","0","0","Male","1","3871","0"
"597","041318","19:26:15","2","136786391","4.0.10.0","1","1","demographics","age","0","0","0","0","0","0","42","1","4860","0"
"598","041318","19:26:15","2","136786391","4.0.10.0","1","2","demographics","gender","0","0","0","0","0","0","Female","1","4891","0"
"599","041418","00:28:08","3","949214698","4.0.10.0","1","1","demographics","age","0","0","0","0","0","0","33","1","3613","0"
"600","041418","00:28:08","3","949214698","4.0.10.0","1","2","demographics","gender","0","0","0","0","0","0","male","1","5881","0"
"601","041318","17:36:13","6","912610539","4.0.10.0","1","1","demographics","age","0","0","0","0","0","0","20 ","1","5910","0"
"602","041318","17:36:13","6","912610539","4.0.10.0","1","2","demographics","gender","0","0","0","0","0","0","female ","1","5611","0"
"603","041418","00:38:40","5","743668990","4.0.10.0","1","1","demographics","age","0","0","0","0","0","0","35","1","6069","0"
"604","041418","00:38:40","5","743668990","4.0.10.0","1","2","demographics","gender","0","0","0","0","0","0","male","1","7384","0"
"605","041418","02:42:12","1","587718879","4.0.10.0","1","1","demographics","age","0","0","0","0","0","0","28","1","4121","0"
"606","041418","02:42:12","1","587718879","4.0.10.0","1","2","demographics","gender","0","0","0","0","0","0","male","1","2663","0"
"607","041418","00:42:36","4","913182879","4.0.10.0","1","1","demographics","age","0","0","0","0","0","0","45","1","6354","0"
"608","041418","00:42:36","4","913182879","4.0.10.0","1","2","demographics","gender","0","0","0","0","0","0","male","1","4685","0"
"609","041318","18:42:49","7","157551057","4.0.10.0","1","1","demographics","age","0","0","0","0","0","0","24","1","5463","0"
"610","041318","18:42:49","7","157551057","4.0.10.0","1","2","demographics","gender","0","0","0","0","0","0","female","1","3070","0"
"611","041418","00:44:24","2","587659571","4.0.10.0","1","1","demographics","age","0","0","0","0","0","0","36","1","5590","0"
"612","041418","00:44:24","2","587659571","4.0.10.0","1","2","demographics","gender","0","0","0","0","0","0","Female","1","4202","0"
"613","041418","00:51:36","7","952006938","4.0.10.0","1","1","demographics","age","0","0","0","0","0","0","46","1","5715","0"
"614","041418","00:51:36","7","952006938","4.0.10.0","1","2","demographics","gender","0","0","0","0","0","0","female","1","8551","0"
"615","041318","19:53:19","4","914656232","4.0.10.0","1","1","demographics","age","0","0","0","0","0","0","21","1","11579","0"
"616","041318","19:53:19","4","914656232","4.0.10.0","1","2","demographics","gender","0","0","0","0","0","0","Male","1","3170","0"
"617","041418","10:01:04","1","413137442","4.0.10.0","1","1","demographics","age","0","0","0","0","0","0","28 ","1","8243","0"
"618","041418","10:01:04","1","413137442","4.0.10.0","1","2","demographics","gender","0","0","0","0","0","0","Female","1","4205","0"
"619","041418","01:06:01","2","333916318","4.0.10.0","1","1","demographics","age","0","0","0","0","0","0","36","1","4599","0"
"620","041418","01:06:01","2","333916318","4.0.10.0","1","2","demographics","gender","0","0","0","0","0","0","Male","1","3117","0"
"621","041318","18:16:45","3","313078267","4.0.10.0","1","1","demographics","age","0","0","0","0","0","0","22","1","4875","0"
"622","041318","18:16:45","3","313078267","4.0.10.0","1","2","demographics","gender","0","0","0","0","0","0","male","1","3576","0"
"623","041318","20:17:57","6","935523677","4.0.10.0","1","1","demographics","age","0","0","0","0","0","0","35","1","7783","0"
"624","041318","20:17:57","6","935523677","4.0.10.0","1","2","demographics","gender","0","0","0","0","0","0","male","1","6291","0"
"625","041418","01:19:58","8","44333375","4.0.10.0","1","1","demographics","age","0","0","0","0","0","0","24","1","4038","0"
"626","041418","01:19:58","8","44333375","4.0.10.0","1","2","demographics","gender","0","0","0","0","0","0","male","1","2915","0"
"627","041418","01:19:10","4","303695708","4.0.10.0","1","1","demographics","age","0","0","0","0","0","0","30 ","1","6661","0"
"628","041418","01:19:10","4","303695708","4.0.10.0","1","2","demographics","gender","0","0","0","0","0","0","female","1","6059","0"
"629","041418","08:25:29","7","166453206","4.0.10.0","1","1","demographics","age","0","0","0","0","0","0","55","1","7928","0"
"630","041418","08:25:29","7","166453206","4.0.10.0","1","2","demographics","gender","0","0","0","0","0","0","Male","1","5135","0"
"631","041318","20:41:00","8","595785533","4.0.10.0","1","1","demographics","age","0","0","0","0","0","0","31","1","4624","0"
"632","041318","20:41:00","8","595785533","4.0.10.0","1","2","demographics","gender","0","0","0","0","0","0","Male","1","4135","0"
"633","041318","20:40:42","5","821252036","4.0.10.0","1","1","demographics","age","0","0","0","0","0","0","18","1","3561","0"
"634","041318","20:40:42","5","821252036","4.0.10.0","1","2","demographics","gender","0","0","0","0","0","0","Male","1","3236","0"
"635","041318","20:42:06","6","687742676","4.0.10.0","1","1","demographics","age","0","0","0","0","0","0","31","1","2485","0"
"636","041318","20:42:06","6","687742676","4.0.10.0","1","2","demographics","gender","0","0","0","0","0","0","male","1","2622","0"
"637","041318","20:41:52","7","401264406","4.0.10.0","1","1","demographics","age","0","0","0","0","0","0","18","1","4660","0"
"638","041318","20:41:52","7","401264406","4.0.10.0","1","2","demographics","gender","0","0","0","0","0","0","female","1","3744","0"
"639","041418","01:43:16","4","520510332","4.0.10.0","1","1","demographics","age","0","0","0","0","0","0","38","1","5959","0"
"640","041418","01:43:16","4","520510332","4.0.10.0","1","2","demographics","gender","0","0","0","0","0","0","female","1","7419","0"
"641","041318","20:48:51","2","510991885","4.0.10.0","1","1","demographics","age","0","0","0","0","0","0","40","1","4558","0"
"642","041318","20:48:51","2","510991885","4.0.10.0","1","2","demographics","gender","0","0","0","0","0","0","Male","1","4206","0"
"643","041418","10:56:08","8","888521250","4.0.10.0","1","1","demographics","age","0","0","0","0","0","0","19","1","22685","0"
"644","041418","10:56:08","8","888521250","4.0.10.0","1","2","demographics","gender","0","0","0","0","0","0","Male","1","4360","0"
"645","041318","21:09:25","5","312881666","4.0.10.0","1","1","demographics","age","0","0","0","0","0","0","28","1","6960","0"
"646","041318","21:09:25","5","312881666","4.0.10.0","1","2","demographics","gender","0","0","0","0","0","0","female","1","4093","0"
"647","041418","09:11:51","8","834381448","4.0.10.0","1","1","demographics","age","0","0","0","0","0","0","49","1","5907","0"
"648","041418","09:11:51","8","834381448","4.0.10.0","1","2","demographics","gender","0","0","0","0","0","0","female","1","5810","0"
"649","041318","21:21:58","4","668997454","4.0.10.0","1","1","demographics","age","0","0","0","0","0","0","23","1","8540","0"
"650","041318","21:21:58","4","668997454","4.0.10.0","1","2","demographics","gender","0","0","0","0","0","0","Female","1","4357","0"
"651","041318","21:24:09","7","716051228","4.0.10.0","1","1","demographics","age","0","0","0","0","0","0","54","1","5206","0"
"652","041318","21:24:09","7","716051228","4.0.10.0","1","2","demographics","gender","0","0","0","0","0","0","female","1","5475","0"
"653","041418","04:28:13","3","586960191","4.0.10.0","1","1","demographics","age","0","0","0","0","0","0","25","1","2493","0"
"654","041418","04:28:13","3","586960191","4.0.10.0","1","2","demographics","gender","0","0","0","0","0","0","Male","1","3585","0"
"655","041318","21:29:14","5","806773957","4.0.10.0","1","1","demographics","age","0","0","0","0","0","0","20","1","6892","0"
"656","041318","21:29:14","5","806773957","4.0.10.0","1","2","demographics","gender","0","0","0","0","0","0","female","1","2991","0"
"657","041318","21:30:42","6","229660102","4.0.10.0","1","1","demographics","age","0","0","0","0","0","0","33 ","1","8243","0"
"658","041318","21:30:42","6","229660102","4.0.10.0","1","2","demographics","gender","0","0","0","0","0","0","male","1","5497","0"
"659","041318","21:31:37","8","386397022","4.0.10.0","1","1","demographics","age","0","0","0","0","0","0","38","1","19971","0"
"660","041318","21:31:37","8","386397022","4.0.10.0","1","2","demographics","gender","0","0","0","0","0","0","male","1","8075","0"
"661","041418","11:40:39","4","992216196","4.0.10.0","1","1","demographics","age","0","0","0","0","0","0","21","1","13622","0"
"662","041418","11:40:39","4","992216196","4.0.10.0","1","2","demographics","gender","0","0","0","0","0","0","Male","1","24174","0"
"663","041318","20:46:32","3","408211722","4.0.10.0","1","1","demographics","age","0","0","0","0","0","0","38","1","15773","0"
"664","041318","20:46:32","3","408211722","4.0.10.0","1","2","demographics","gender","0","0","0","0","0","0","Male","1","12048","0"
"665","041318","18:50:39","2","525360810","4.0.10.0","1","1","demographics","age","0","0","0","0","0","0","22","1","16037","0"
"666","041318","18:50:39","2","525360810","4.0.10.0","1","2","demographics","gender","0","0","0","0","0","0","female","1","3304","0"
"667","041318","22:34:06","1","116265055","4.0.10.0","1","1","demographics","age","0","0","0","0","0","0","28","1","5402","0"
"668","041318","22:34:06","1","116265055","4.0.10.0","1","2","demographics","gender","0","0","0","0","0","0","Male","1","2867","0"
"669","041318","19:54:53","2","2851922","4.0.10.0","1","1","demographics","age","0","0","0","0","0","0","37","1","4306","0"
"670","041318","19:54:53","2","2851922","4.0.10.0","1","2","demographics","gender","0","0","0","0","0","0","Female","1","4581","0"
"671","041318","20:09:28","4","441906438","4.0.10.0","1","1","demographics","age","0","0","0","0","0","0","18","1","4372","0"
"672","041318","20:09:28","4","441906438","4.0.10.0","1","2","demographics","gender","0","0","0","0","0","0","Female","1","2664","0"
"673","041318","20:10:34","4","441906438","4.0.10.0","1","1","demographics","age","0","0","0","0","0","0","18","1","2472","0"
"674","041318","20:10:34","4","441906438","4.0.10.0","1","2","demographics","gender","0","0","0","0","0","0","Female","1","2704","0"
"675","041318","23:17:17","8","147373664","4.0.10.0","1","1","demographics","age","0","0","0","0","0","0","47","1","7040","0"
"676","041318","23:17:17","8","147373664","4.0.10.0","1","2","demographics","gender","0","0","0","0","0","0","female","1","5741","0"
"677","041318","23:25:10","2","847083723","4.0.10.0","1","1","demographics","age","0","0","0","0","0","0","19","1","4810","0"
"678","041318","23:25:10","2","847083723","4.0.10.0","1","2","demographics","gender","0","0","0","0","0","0","female","1","5520","0"
"679","041318","20:38:09","4","277769444","4.0.10.0","1","1","demographics","age","0","0","0","0","0","0","40","1","8508","0"
"680","041318","20:38:09","4","277769444","4.0.10.0","1","2","demographics","gender","0","0","0","0","0","0","male","1","4584","0"
"681","041318","20:42:18","1","208045783","4.0.10.0","1","1","demographics","age","0","0","0","0","0","0","33","1","6888","0"
"682","041318","20:42:18","1","208045783","4.0.10.0","1","2","demographics","gender","0","0","0","0","0","0","male","1","15069","0"
"683","041418","13:46:07","6","268217651","4.0.10.0","1","1","demographics","age","0","0","0","0","0","0","18","1","4451","0"
"684","041418","13:46:07","6","268217651","4.0.10.0","1","2","demographics","gender","0","0","0","0","0","0","male","1","2665","0"
"685","041318","23:10:25","5","658011067","4.0.10.0","1","1","demographics","age","0","0","0","0","0","0","23","1","2574","0"
"686","041318","23:10:25","5","658011067","4.0.10.0","1","2","demographics","gender","0","0","0","0","0","0","Male","1","3330","0"
"687","041418","00:12:16","7","170187213","4.0.10.0","1","1","demographics","age","0","0","0","0","0","0","42","1","11653","0"
"688","041418","00:12:16","7","170187213","4.0.10.0","1","2","demographics","gender","0","0","0","0","0","0","male","1","6241","0"
"689","041418","00:14:47","6","72480024","4.0.10.0","1","1","demographics","age","0","0","0","0","0","0","43","1","5804","0"
"690","041418","00:14:47","6","72480024","4.0.10.0","1","2","demographics","gender","0","0","0","0","0","0","female","1","9847","0"
"691","041418","00:15:15","1","185393516","4.0.10.0","1","1","demographics","age","0","0","0","0","0","0","42","1","16432","0"
"692","041418","00:15:15","1","185393516","4.0.10.0","1","2","demographics","gender","0","0","0","0","0","0","Male","1","13359","0"
"693","041318","23:18:13","4","42945811","4.0.10.0","1","1","demographics","age","0","0","0","0","0","0","18","1","3474","0"
"694","041318","23:18:13","4","42945811","4.0.10.0","1","2","demographics","gender","0","0","0","0","0","0","male","1","1995","0"
"695","041318","21:25:06","2","751481078","4.0.10.0","1","1","demographics","age","0","0","0","0","0","0","40","1","13155","0"
"696","041318","21:25:06","2","751481078","4.0.10.0","1","2","demographics","gender","0","0","0","0","0","0","male","1","5210","0"
"697","041418","00:36:45","6","609129259","4.0.10.0","1","1","demographics","age","0","0","0","0","0","0","33","1","6181","0"
"698","041418","00:36:45","6","609129259","4.0.10.0","1","2","demographics","gender","0","0","0","0","0","0","Male","1","9836","0"
"699","041418","00:37:32","7","39832970","4.0.10.0","1","1","demographics","age","0","0","0","0","0","0","40","1","5058","0"
"700","041418","00:37:32","7","39832970","4.0.10.0","1","2","demographics","gender","0","0","0","0","0","0","male","1","4871","0"
"701","041418","05:48:34","3","722153133","4.0.10.0","1","1","demographics","age","0","0","0","0","0","0","59","1","7610","0"
"702","041418","05:48:34","3","722153133","4.0.10.0","1","2","demographics","gender","0","0","0","0","0","0","MALE","1","8641","0"
"703","041418","00:55:11","2","123554246","4.0.10.0","1","1","demographics","age","0","0","0","0","0","0","23 ","1","6755","0"
"704","041418","00:55:11","2","123554246","4.0.10.0","1","2","demographics","gender","0","0","0","0","0","0","Female","1","7194","0"
"705","041418","06:03:54","1","601050101","4.0.10.0","1","1","demographics","age","0","0","0","0","0","0","32","1","11386","0"
"706","041418","06:03:54","1","601050101","4.0.10.0","1","2","demographics","gender","0","0","0","0","0","0","cis female","1","9904","0"
"707","041318","23:10:26","8","373537581","4.0.10.0","1","1","demographics","age","0","0","0","0","0","0","38","1","5653","0"
"708","041318","23:10:26","8","373537581","4.0.10.0","1","2","demographics","gender","0","0","0","0","0","0","Female","1","5665","0"
"709","041418","01:12:55","1","439610419","4.0.10.0","1","1","demographics","age","0","0","0","0","0","0","58","1","6699","0"
"710","041418","01:12:55","1","439610419","4.0.10.0","1","2","demographics","gender","0","0","0","0","0","0","male","1","5140","0"
"711","041318","22:22:58","6","591972084","4.0.10.0","1","1","demographics","age","0","0","0","0","0","0","32","1","4116","0"
"712","041318","22:22:58","6","591972084","4.0.10.0","1","2","demographics","gender","0","0","0","0","0","0","Male","1","5828","0"
"713","041318","22:35:33","4","553623186","4.0.10.0","1","1","demographics","age","0","0","0","0","0","0","24 ","1","2976","0"
"714","041318","22:35:33","4","553623186","4.0.10.0","1","2","demographics","gender","0","0","0","0","0","0","male","1","3927","0"
"715","041318","22:38:30","5","272952339","4.0.10.0","1","1","demographics","age","0","0","0","0","0","0","40","1","9760","0"
"716","041318","22:38:30","5","272952339","4.0.10.0","1","2","demographics","gender","0","0","0","0","0","0","male","1","7702","0"
"717","041418","06:43:42","8","417244357","4.0.10.0","1","1","demographics","age","0","0","0","0","0","0","44","1","7387","0"
"718","041418","06:43:42","8","417244357","4.0.10.0","1","2","demographics","gender","0","0","0","0","0","0","Female","1","8492","0"
"719","041418","06:44:43","8","417244357","4.0.10.0","1","1","demographics","age","0","0","0","0","0","0","","1","2987","0"
"720","041418","06:46:53","8","417244357","4.0.10.0","1","1","demographics","age","0","0","0","0","0","0","44","1","6558","0"
"721","041418","06:46:53","8","417244357","4.0.10.0","1","2","demographics","gender","0","0","0","0","0","0","Female","1","7042","0"
"722","041418","06:49:59","7","791410652","4.0.10.0","1","1","demographics","age","0","0","0","0","0","0","35","1","3053","0"
"723","041418","06:49:59","7","791410652","4.0.10.0","1","2","demographics","gender","0","0","0","0","0","0","Male","1","3714","0"
"724","041418","01:54:55","6","53128596","4.0.10.0","1","1","demographics","age","0","0","0","0","0","0","26","1","13873","0"
"725","041418","01:54:55","6","53128596","4.0.10.0","1","2","demographics","gender","0","0","0","0","0","0","female","1","7596","0"
"726","041418","06:59:35","3","568896474","4.0.10.0","1","1","demographics","age","0","0","0","0","0","0","47","1","3684","0"
"727","041418","06:59:35","3","568896474","4.0.10.0","1","2","demographics","gender","0","0","0","0","0","0","female","1","7103","0"
"728","041418","01:03:36","2","692825467","4.0.10.0","1","1","demographics","age","0","0","0","0","0","0","46","1","4277","0"
"729","041418","01:03:36","2","692825467","4.0.10.0","1","2","demographics","gender","0","0","0","0","0","0","female","1","4642","0"
"730","041418","02:03:59","4","616783822","4.0.10.0","1","1","demographics","age","0","0","0","0","0","0","27","1","7410","0"
"731","041418","02:03:59","4","616783822","4.0.10.0","1","2","demographics","gender","0","0","0","0","0","0","female","1","4271","0"
"732","041418","07:08:32","5","301636904","4.0.10.0","1","1","demographics","age","0","0","0","0","0","0","18","1","8167","0"
"733","041418","07:08:32","5","301636904","4.0.10.0","1","2","demographics","gender","0","0","0","0","0","0","Female","1","3731","0"
"734","041418","07:22:36","4","948366732","4.0.10.0","1","1","demographics","age","0","0","0","0","0","0","45","1","4909","0"
"735","041418","07:22:36","4","948366732","4.0.10.0","1","2","demographics","gender","0","0","0","0","0","0","female","1","8815","0"
"736","041318","23:25:48","5","473455292","4.0.10.0","1","1","demographics","age","0","0","0","0","0","0","32","1","5683","0"
"737","041318","23:25:48","5","473455292","4.0.10.0","1","2","demographics","gender","0","0","0","0","0","0","Female","1","4750","0"
"738","041418","07:37:34","2","820929681","4.0.10.0","1","1","demographics","age","0","0","0","0","0","0","58","1","7976","0"
"739","041418","07:37:34","2","820929681","4.0.10.0","1","2","demographics","gender","0","0","0","0","0","0","female","1","8063","0"
"740","041418","12:21:35","6","731902506","4.0.10.0","1","1","demographics","age","0","0","0","0","0","0","24","1","4731","0"
"741","041418","12:21:35","6","731902506","4.0.10.0","1","2","demographics","gender","0","0","0","0","0","0","Male","1","3517","0"
"742","041418","12:22:47","1","517792012","4.0.10.0","1","1","demographics","age","0","0","0","0","0","0","23","1","3568","0"
"743","041418","12:22:47","1","517792012","4.0.10.0","1","2","demographics","gender","0","0","0","0","0","0","Female","1","4518","0"
"744","041418","12:32:50","3","645985891","4.0.10.0","1","1","demographics","age","0","0","0","0","0","0","25 ","1","6438","0"
"745","041418","12:32:50","3","645985891","4.0.10.0","1","2","demographics","gender","0","0","0","0","0","0","Female","1","5242","0"
"746","041418","12:33:09","4","356499709","4.0.10.0","1","1","demographics","age","0","0","0","0","0","0","49","1","4848","0"
"747","041418","12:33:09","4","356499709","4.0.10.0","1","2","demographics","gender","0","0","0","0","0","0","f","1","2968","0"
"748","041418","12:35:31","2","52504693","4.0.10.0","1","1","demographics","age","0","0","0","0","0","0","32","1","3725","0"
"749","041418","12:35:31","2","52504693","4.0.10.0","1","2","demographics","gender","0","0","0","0","0","0","female","1","2993","0"
"750","041418","12:38:55","4","722357365","4.0.10.0","1","1","demographics","age","0","0","0","0","0","0","34","1","3973","0"
"751","041418","12:38:55","4","722357365","4.0.10.0","1","2","demographics","gender","0","0","0","0","0","0","Male","1","4471","0"
"752","041418","12:44:33","3","951126337","4.0.10.0","1","1","demographics","age","0","0","0","0","0","0","37","1","4471","0"
"753","041418","12:44:33","3","951126337","4.0.10.0","1","2","demographics","gender","0","0","0","0","0","0","female","1","8214","0"
"754","041418","12:45:30","6","169448874","4.0.10.0","1","1","demographics","age","0","0","0","0","0","0","59","1","5360","0"
"755","041418","12:45:30","6","169448874","4.0.10.0","1","2","demographics","gender","0","0","0","0","0","0","female","1","7079","0"
"756","041418","05:47:28","8","231468360","4.0.10.0","1","1","demographics","age","0","0","0","0","0","0","64","1","5043","0"
"757","041418","05:47:28","8","231468360","4.0.10.0","1","2","demographics","gender","0","0","0","0","0","0","Female","1","6658","0"
"758","041418","05:49:09","8","231468360","4.0.10.0","1","1","demographics","age","0","0","0","0","0","0","64","1","3466","0"
"759","041418","05:49:09","8","231468360","4.0.10.0","1","2","demographics","gender","0","0","0","0","0","0","Female","1","5660","0"
"760","041418","12:50:21","3","433479376","4.0.10.0","1","1","demographics","age","0","0","0","0","0","0","23","1","4066","0"
"761","041418","12:50:21","3","433479376","4.0.10.0","1","2","demographics","gender","0","0","0","0","0","0","Female","1","5893","0"
"762","041418","12:52:13","4","886966735","4.0.10.0","1","1","demographics","age","0","0","0","0","0","0","30","1","26964","0"
"763","041418","12:52:13","4","886966735","4.0.10.0","1","2","demographics","gender","0","0","0","0","0","0","Female","1","3458","0"
"764","041418","12:55:54","6","88378024","4.0.10.0","1","1","demographics","age","0","0","0","0","0","0","44","1","5066","0"
"765","041418","12:55:54","6","88378024","4.0.10.0","1","2","demographics","gender","0","0","0","0","0","0","female","1","16406","0"
"766","041418","12:58:13","7","351071339","4.0.10.0","1","1","demographics","age","0","0","0","0","0","0","54","1","11068","0"
"767","041418","12:58:13","7","351071339","4.0.10.0","1","2","demographics","gender","0","0","0","0","0","0","female","1","7159","0"
"768","041418","12:58:23","2","733928976","4.0.10.0","1","1","demographics","age","0","0","0","0","0","0","29","1","10113","0"
"769","041418","12:58:23","2","733928976","4.0.10.0","1","2","demographics","gender","0","0","0","0","0","0","female","1","3701","0"
"770","041418","12:59:18","1","63396024","4.0.10.0","1","1","demographics","age","0","0","0","0","0","0","54","1","11228","0"
"771","041418","12:59:18","1","63396024","4.0.10.0","1","2","demographics","gender","0","0","0","0","0","0","female","1","5663","0"
"772","041418","13:01:57","2","15307734","4.0.10.0","1","1","demographics","age","0","0","0","0","0","0","21","1","4099","0"
"773","041418","13:01:57","2","15307734","4.0.10.0","1","2","demographics","gender","0","0","0","0","0","0","Male","1","4537","0"
