"","V1","date","time","group","subject","build","blocknum","trialnum","blockcode","trialcode","pretrialpause","posttrialpause","windowcenter","trialduration","trialtimeout","blocktimeout","response","correct","latency","inwindow"
"1",1,20718,"20:08:12",857524699,182940083,"4.0.10.0",1,1,"demographics","age",0,0,0,0,0,0,"49",1,5369,0
"2",2,20718,"20:08:12",857524699,182940083,"4.0.10.0",1,2,"demographics","gender",0,0,0,0,0,0,"Female",1,3719,0
"3",3,20718,"14:05:10",115981584,730072246,"4.0.10.0",1,1,"demographics","age",0,0,0,0,0,0,"21",1,2900,0
"4",4,20718,"14:05:10",115981584,730072246,"4.0.10.0",1,2,"demographics","gender",0,0,0,0,0,0,"Male",1,2549,0
"5",5,20718,"20:05:28",156230344,57250160,"4.0.10.0",1,1,"demographics","age",0,0,0,0,0,0,"36",1,3167,0
"6",6,20718,"20:05:28",156230344,57250160,"4.0.10.0",1,2,"demographics","gender",0,0,0,0,0,0,"male",1,3154,0
"7",7,20718,"20:04:39",28248525,255740741,"4.0.10.0",1,1,"demographics","age",0,0,0,0,0,0,"29",1,5076,0
"8",8,20718,"20:04:39",28248525,255740741,"4.0.10.0",1,2,"demographics","gender",0,0,0,0,0,0,"female",1,3211,0
"9",9,20718,"21:04:08",428214434,27226757,"4.0.10.0",1,1,"demographics","age",0,0,0,0,0,0,"25",1,14470,0
"10",10,20718,"21:04:08",428214434,27226757,"4.0.10.0",1,2,"demographics","gender",0,0,0,0,0,0,"female",1,7040,0
"11",11,20718,"20:05:28",156230344,57250160,"4.0.10.0",1,1,"demographics","age",0,0,0,0,0,0,"36",1,3167,0
"12",12,20718,"20:05:28",156230344,57250160,"4.0.10.0",1,2,"demographics","gender",0,0,0,0,0,0,"male",1,3154,0
"13",13,20718,"20:04:00",110624351,563591600,"4.0.10.0",1,1,"demographics","age",0,0,0,0,0,0,"33",1,5218,0
"14",14,20718,"20:04:00",110624351,563591600,"4.0.10.0",1,2,"demographics","gender",0,0,0,0,0,0,"female",1,5970,0
"15",15,20718,"20:03:46",603272830,681508303,"4.0.10.0",1,1,"demographics","age",0,0,0,0,0,0,"30",1,3550,0
"16",16,20718,"20:03:46",603272830,681508303,"4.0.10.0",1,2,"demographics","gender",0,0,0,0,0,0,"male",1,3867,0
"17",17,20718,"20:03:29",52392316,770578037,"4.0.10.0",1,1,"demographics","age",0,0,0,0,0,0,"31",1,6841,0
"18",18,20718,"20:03:29",52392316,770578037,"4.0.10.0",1,2,"demographics","gender",0,0,0,0,0,0,"female",1,6324,0
"19",19,20718,"20:03:25",546879522,837260989,"4.0.10.0",1,1,"demographics","age",0,0,0,0,0,0,"31",1,5563,0
"20",20,20718,"20:03:25",546879522,837260989,"4.0.10.0",1,2,"demographics","gender",0,0,0,0,0,0,"Female",1,5695,0
"21",21,20718,"20:04:25",156230344,57250160,"4.0.10.0",1,1,"demographics","age",0,0,0,0,0,0,"36",1,4002,0
"22",22,20718,"20:04:25",156230344,57250160,"4.0.10.0",1,2,"demographics","gender",0,0,0,0,0,0,"male",1,3565,0
"23",23,20718,"12:02:12",667308669,7205392,"4.0.10.0",1,1,"demographics","age",0,0,0,0,0,0,"34",1,3466,0
"24",24,20718,"12:02:12",667308669,7205392,"4.0.10.0",1,2,"demographics","gender",0,0,0,0,0,0,"male",1,4565,0
"25",25,20718,"18:26:44",602824275,657593060,"4.0.10.0",1,1,"demographics","age",0,0,0,0,0,0,"40",1,3611,0
"26",26,20718,"18:26:44",602824275,657593060,"4.0.10.0",1,2,"demographics","gender",0,0,0,0,0,0,"male",1,4978,0
"27",27,20718,"17:00:12",278772142,325320975,"4.0.10.0",1,1,"demographics","age",0,0,0,0,0,0,"45",1,4357,0
"28",28,20718,"17:00:12",278772142,325320975,"4.0.10.0",1,2,"demographics","gender",0,0,0,0,0,0,"Male",1,3573,0
"29",29,20718,"16:48:20",574099142,148231489,"4.0.10.0",1,1,"demographics","age",0,0,0,0,0,0,"28",1,8876,0
"30",30,20718,"16:48:20",574099142,148231489,"4.0.10.0",1,2,"demographics","gender",0,0,0,0,0,0,"female",1,15686,0
"31",31,20718,"16:36:42",175649895,935323645,"4.0.10.0",1,1,"demographics","age",0,0,0,0,0,0,"",1,12944,0
"32",32,20718,"12:36:05",487853738,942733821,"4.0.10.0",1,1,"demographics","age",0,0,0,0,0,0,"23",1,4885,0
"33",33,20718,"12:36:05",487853738,942733821,"4.0.10.0",1,2,"demographics","gender",0,0,0,0,0,0,"male",1,4230,0
"34",34,20718,"16:33:34",830540342,772374929,"4.0.10.0",1,1,"demographics","age",0,0,0,0,0,0,"53",1,4905,0
"35",35,20718,"16:33:34",830540342,772374929,"4.0.10.0",1,2,"demographics","gender",0,0,0,0,0,0,"53",1,4336,0
"36",36,20718,"16:32:04",392830515,991310004,"4.0.10.0",1,1,"demographics","age",0,0,0,0,0,0,"34",1,3155,0
"37",37,20718,"16:32:04",392830515,991310004,"4.0.10.0",1,2,"demographics","gender",0,0,0,0,0,0,"female",1,3663,0
"38",38,20718,"16:31:48",720248016,955145745,"4.0.10.0",1,1,"demographics","age",0,0,0,0,0,0,"59",1,12360,0
"39",39,20718,"16:31:48",720248016,955145745,"4.0.10.0",1,2,"demographics","gender",0,0,0,0,0,0,"male",1,7181,0
"40",40,20718,"16:31:57",872541649,238431888,"4.0.10.0",1,1,"demographics","age",0,0,0,0,0,0,"40",1,5072,0
"41",41,20718,"16:31:57",872541649,238431888,"4.0.10.0",1,2,"demographics","gender",0,0,0,0,0,0,"Female",1,5517,0
"42",42,20718,"16:30:51",175649895,935323645,"4.0.10.0",1,1,"demographics","age",0,0,0,0,0,0,"32",1,3420,0
"43",43,20718,"16:30:51",175649895,935323645,"4.0.10.0",1,2,"demographics","gender",0,0,0,0,0,0,"female",1,5493,0
"44",44,20718,"16:30:59",148807327,525408622,"4.0.10.0",1,1,"demographics","age",0,0,0,0,0,0,"48",1,6120,0
"45",45,20718,"16:30:59",148807327,525408622,"4.0.10.0",1,2,"demographics","gender",0,0,0,0,0,0,"male",1,3594,0
"46",46,20718,"16:30:41",981544530,739994208,"4.0.10.0",1,1,"demographics","age",0,0,0,0,0,0,"28",1,3026,0
"47",47,20718,"16:30:41",981544530,739994208,"4.0.10.0",1,2,"demographics","gender",0,0,0,0,0,0,"female",1,4087,0
"48",48,20718,"16:00:56",542431076,717194360,"4.0.10.0",1,1,"demographics","age",0,0,0,0,0,0,"50 ",1,5677,0
"49",49,20718,"16:00:56",542431076,717194360,"4.0.10.0",1,2,"demographics","gender",0,0,0,0,0,0,"f",1,10328,0
"50",50,20718,"16:21:01",712422110,742227168,"4.0.10.0",1,1,"demographics","age",0,0,0,0,0,0,"21 ",1,5983,0
"51",51,20718,"16:21:01",712422110,742227168,"4.0.10.0",1,2,"demographics","gender",0,0,0,0,0,0,"male",1,3409,0
"52",52,20718,"16:22:08",746821145,147347378,"4.0.10.0",1,1,"demographics","age",0,0,0,0,0,0,"52",1,7230,0
"53",53,20718,"16:22:08",746821145,147347378,"4.0.10.0",1,2,"demographics","gender",0,0,0,0,0,0,"Female",1,5834,0
"54",54,20718,"16:16:03",677996632,605606673,"4.0.10.0",1,1,"demographics","age",0,0,0,0,0,0,"27",1,39753,0
"55",55,20718,"16:16:03",677996632,605606673,"4.0.10.0",1,2,"demographics","gender",0,0,0,0,0,0,"female",1,5470,0
"56",56,20818,"01:16:34",815899598,295372062,"4.0.10.0",1,1,"demographics","age",0,0,0,0,0,0,"27 ",1,4430,0
"57",57,20818,"01:16:34",815899598,295372062,"4.0.10.0",1,2,"demographics","gender",0,0,0,0,0,0,"male",1,4698,0
"58",58,20718,"16:16:18",243097400,41400304,"4.0.10.0",1,1,"demographics","age",0,0,0,0,0,0,"21",1,7782,0
"59",59,20718,"16:16:18",243097400,41400304,"4.0.10.0",1,2,"demographics","gender",0,0,0,0,0,0,"Male",1,4239,0
"60",60,20718,"16:14:57",841094815,833121121,"4.0.10.0",1,1,"demographics","age",0,0,0,0,0,0,"28",1,5967,0
"61",61,20718,"16:14:57",841094815,833121121,"4.0.10.0",1,2,"demographics","gender",0,0,0,0,0,0,"Female",1,4510,0
"62",62,20718,"16:07:44",85622026,563438230,"4.0.10.0",1,1,"demographics","age",0,0,0,0,0,0,"30 ",1,4303,0
"63",63,20718,"16:07:44",85622026,563438230,"4.0.10.0",1,2,"demographics","gender",0,0,0,0,0,0,"female",1,3884,0
"64",64,20718,"16:08:57",851195179,259778364,"4.0.10.0",1,1,"demographics","age",0,0,0,0,0,0,"20",1,10544,0
"65",65,20718,"16:08:57",851195179,259778364,"4.0.10.0",1,2,"demographics","gender",0,0,0,0,0,0,"Male",1,4152,0
"66",66,20718,"11:08:34",959710224,34712061,"4.0.10.0",1,1,"demographics","age",0,0,0,0,0,0,"50 ",1,8585,0
"67",67,20718,"11:08:34",959710224,34712061,"4.0.10.0",1,2,"demographics","gender",0,0,0,0,0,0,"f",1,3045,0
"68",68,20718,"11:08:28",248897318,472641427,"4.0.10.0",1,1,"demographics","age",0,0,0,0,0,0,"  40",1,10646,0
"69",69,20718,"11:08:28",248897318,472641427,"4.0.10.0",1,2,"demographics","gender",0,0,0,0,0,0,"Male",1,6399,0
"70",70,20718,"16:07:25",408957422,240102817,"4.0.10.0",1,1,"demographics","age",0,0,0,0,0,0,"34",1,11829,0
"71",71,20718,"16:07:25",408957422,240102817,"4.0.10.0",1,2,"demographics","gender",0,0,0,0,0,0,"male",1,3621,0
"72",72,20718,"16:05:48",416792613,649334898,"4.0.10.0",1,1,"demographics","age",0,0,0,0,0,0,"48",1,11279,0
"73",73,20718,"16:05:48",416792613,649334898,"4.0.10.0",1,2,"demographics","gender",0,0,0,0,0,0,"male",1,7906,0
"74",74,20718,"16:05:34",479592360,632173056,"4.0.10.0",1,1,"demographics","age",0,0,0,0,0,0,"19",1,6674,0
"75",75,20718,"16:05:34",479592360,632173056,"4.0.10.0",1,2,"demographics","gender",0,0,0,0,0,0,"female",1,6231,0
"76",76,20718,"16:02:17",530301891,291388118,"4.0.10.0",1,1,"demographics","age",0,0,0,0,0,0,"22",1,3900,0
"77",77,20718,"16:02:17",530301891,291388118,"4.0.10.0",1,2,"demographics","gender",0,0,0,0,0,0,"male",1,2179,0
"78",78,20718,"16:01:38",274442445,937860201,"4.0.10.0",1,1,"demographics","age",0,0,0,0,0,0,"20",1,5729,0
"79",79,20718,"16:01:38",274442445,937860201,"4.0.10.0",1,2,"demographics","gender",0,0,0,0,0,0,"female",1,4761,0
"80",80,20718,"16:01:37",677404872,387423690,"4.0.10.0",1,1,"demographics","age",0,0,0,0,0,0,"56",1,6248,0
"81",81,20718,"16:01:37",677404872,387423690,"4.0.10.0",1,2,"demographics","gender",0,0,0,0,0,0,"female",1,5177,0
"82",82,20718,"16:01:13",933415165,846149360,"4.0.10.0",1,1,"demographics","age",0,0,0,0,0,0,"22",1,8832,0
"83",83,20718,"16:01:13",933415165,846149360,"4.0.10.0",1,2,"demographics","gender",0,0,0,0,0,0,"male",1,2258,0
"84",84,20718,"15:59:23",264976127,339116986,"4.0.10.0",1,1,"demographics","age",0,0,0,0,0,0,"21 ",1,15459,0
"85",85,20718,"15:59:23",264976127,339116986,"4.0.10.0",1,2,"demographics","gender",0,0,0,0,0,0,"male",1,3800,0
"86",86,20718,"15:59:55",408957422,240102817,"4.0.10.0",1,1,"demographics","age",0,0,0,0,0,0,"34",1,6296,0
"87",87,20718,"15:59:55",408957422,240102817,"4.0.10.0",1,2,"demographics","gender",0,0,0,0,0,0,"male",1,4019,0
"88",88,20718,"15:59:52",997073081,287391307,"4.0.10.0",1,1,"demographics","age",0,0,0,0,0,0,"24",1,3430,0
"89",89,20718,"15:59:52",997073081,287391307,"4.0.10.0",1,2,"demographics","gender",0,0,0,0,0,0,"Non-binary",1,5088,0
"90",90,20718,"15:58:20",528619251,145596673,"4.0.10.0",1,1,"demographics","age",0,0,0,0,0,0,"24",1,6590,0
"91",91,20718,"15:58:20",528619251,145596673,"4.0.10.0",1,2,"demographics","gender",0,0,0,0,0,0,"female",1,4323,0
"92",92,20718,"15:59:03",349060512,253556644,"4.0.10.0",1,1,"demographics","age",0,0,0,0,0,0,"21",1,3619,0
"93",93,20718,"15:59:03",349060512,253556644,"4.0.10.0",1,2,"demographics","gender",0,0,0,0,0,0,"Male",1,4247,0
"94",94,20718,"15:57:23",706900236,966998928,"4.0.10.0",1,1,"demographics","age",0,0,0,0,0,0,"19",1,4080,0
"95",95,20718,"15:57:23",706900236,966998928,"4.0.10.0",1,2,"demographics","gender",0,0,0,0,0,0,"male",1,2792,0
"96",96,20718,"15:56:30",596816630,77399296,"4.0.10.0",1,1,"demographics","age",0,0,0,0,0,0,"38 ",1,5024,0
"97",97,20718,"15:56:30",596816630,77399296,"4.0.10.0",1,2,"demographics","gender",0,0,0,0,0,0,"F",1,2038,0
"98",98,20718,"10:56:37",248543904,862429627,"4.0.10.0",1,1,"demographics","age",0,0,0,0,0,0,"61",1,5060,0
"99",99,20718,"10:56:37",248543904,862429627,"4.0.10.0",1,2,"demographics","gender",0,0,0,0,0,0,"male",1,5683,0
"100",100,20718,"15:56:32",248025310,402124967,"4.0.10.0",1,1,"demographics","age",0,0,0,0,0,0,"40",1,3281,0
"101",101,20718,"15:56:32",248025310,402124967,"4.0.10.0",1,2,"demographics","gender",0,0,0,0,0,0,"Male",1,3483,0
"102",102,20718,"15:55:50",815424265,468462502,"4.0.10.0",1,1,"demographics","age",0,0,0,0,0,0,"32 ",1,6197,0
"103",103,20718,"15:55:50",815424265,468462502,"4.0.10.0",1,2,"demographics","gender",0,0,0,0,0,0,"female",1,5812,0
"104",104,20718,"15:53:30",382567260,610168744,"4.0.10.0",1,1,"demographics","age",0,0,0,0,0,0,"28",1,5419,0
"105",105,20718,"15:53:30",382567260,610168744,"4.0.10.0",1,2,"demographics","gender",0,0,0,0,0,0,"MALE",1,4016,0
"106",106,20718,"15:53:13",881536800,575082229,"4.0.10.0",1,1,"demographics","age",0,0,0,0,0,0,"42",1,4714,0
"107",107,20718,"15:53:13",881536800,575082229,"4.0.10.0",1,2,"demographics","gender",0,0,0,0,0,0,"f",1,4785,0
"108",108,20718,"15:51:24",881536800,575082229,"4.0.10.0",1,1,"demographics","age",0,0,0,0,0,0,"42",1,12372,0
"109",109,20718,"15:51:24",881536800,575082229,"4.0.10.0",1,2,"demographics","gender",0,0,0,0,0,0,"female",1,6721,0
"110",110,20718,"15:50:30",784701108,647554123,"4.0.10.0",1,1,"demographics","age",0,0,0,0,0,0,"37",1,3523,0
"111",111,20718,"15:50:30",784701108,647554123,"4.0.10.0",1,2,"demographics","gender",0,0,0,0,0,0,"Female",1,4613,0
"112",112,20718,"15:47:32",1499492,258125975,"4.0.10.0",1,1,"demographics","age",0,0,0,0,0,0,"21",1,2236,0
"113",113,20718,"15:47:32",1499492,258125975,"4.0.10.0",1,2,"demographics","gender",0,0,0,0,0,0,"Male",1,3538,0
"114",114,20718,"15:47:10",1499492,258125975,"4.0.10.0",1,1,"demographics","age",0,0,0,0,0,0,"21",1,7376,0
"115",115,20718,"15:46:13",410794612,44646583,"4.0.10.0",1,1,"demographics","age",0,0,0,0,0,0,"52",1,2869,0
"116",116,20718,"15:46:13",410794612,44646583,"4.0.10.0",1,2,"demographics","gender",0,0,0,0,0,0,"male",1,3606,0
"117",117,20718,"15:43:49",305518479,906784166,"4.0.10.0",1,1,"demographics","age",0,0,0,0,0,0,"47",1,5654,0
"118",118,20718,"15:43:49",305518479,906784166,"4.0.10.0",1,2,"demographics","gender",0,0,0,0,0,0,"female",1,5449,0
"119",119,20718,"10:43:15",847983867,365496626,"4.0.10.0",1,1,"demographics","age",0,0,0,0,0,0,"26",1,3402,0
"120",120,20718,"10:43:15",847983867,365496626,"4.0.10.0",1,2,"demographics","gender",0,0,0,0,0,0,"Female",1,4526,0
"121",121,20718,"15:40:59",434064672,169236538,"4.0.10.0",1,1,"demographics","age",0,0,0,0,0,0,"37",1,71293,0
"122",122,20718,"15:40:59",434064672,169236538,"4.0.10.0",1,2,"demographics","gender",0,0,0,0,0,0,"Male",1,2477,0
"123",123,20718,"09:41:35",818737021,174790887,"4.0.10.0",1,1,"demographics","age",0,0,0,0,0,0,"34",1,2157,0
"124",124,20718,"09:41:35",818737021,174790887,"4.0.10.0",1,2,"demographics","gender",0,0,0,0,0,0,"male",1,2584,0
"125",125,20718,"15:40:35",718656513,884258753,"4.0.10.0",1,1,"demographics","age",0,0,0,0,0,0,"31",1,3869,0
"126",126,20718,"15:40:35",718656513,884258753,"4.0.10.0",1,2,"demographics","gender",0,0,0,0,0,0,"31",1,2705,0
"127",127,20718,"15:37:39",798067948,485218603,"4.0.10.0",1,1,"demographics","age",0,0,0,0,0,0,"36",1,3591,0
"128",128,20718,"15:37:39",798067948,485218603,"4.0.10.0",1,2,"demographics","gender",0,0,0,0,0,0,"Male",1,4364,0
"129",129,20718,"15:39:55",327700477,179188146,"4.0.10.0",1,1,"demographics","age",0,0,0,0,0,0,"25",1,4348,0
"130",130,20718,"15:39:55",327700477,179188146,"4.0.10.0",1,2,"demographics","gender",0,0,0,0,0,0,"female",1,3094,0
"131",131,20718,"15:38:31",34499954,349640595,"4.0.10.0",1,1,"demographics","age",0,0,0,0,0,0,"31",1,3066,0
"132",132,20718,"15:38:31",34499954,349640595,"4.0.10.0",1,2,"demographics","gender",0,0,0,0,0,0,"female",1,5279,0
"133",133,20718,"15:38:39",114021498,560194454,"4.0.10.0",1,1,"demographics","age",0,0,0,0,0,0,"21",1,6597,0
"134",134,20718,"15:38:39",114021498,560194454,"4.0.10.0",1,2,"demographics","gender",0,0,0,0,0,0,"Male",1,2811,0
"135",135,20718,"15:38:47",816877636,467903513,"4.0.10.0",1,1,"demographics","age",0,0,0,0,0,0,"29",1,4444,0
"136",136,20718,"15:38:47",816877636,467903513,"4.0.10.0",1,2,"demographics","gender",0,0,0,0,0,0,"female",1,4597,0
"137",137,20718,"15:38:21",319505759,64634778,"4.0.10.0",1,1,"demographics","age",0,0,0,0,0,0,"25",1,12139,0
"138",138,20718,"15:38:21",319505759,64634778,"4.0.10.0",1,2,"demographics","gender",0,0,0,0,0,0,"female",1,6053,0
"139",139,20718,"15:38:52",666339072,398489489,"4.0.10.0",1,1,"demographics","age",0,0,0,0,0,0,"32",1,4786,0
"140",140,20718,"15:38:52",666339072,398489489,"4.0.10.0",1,2,"demographics","gender",0,0,0,0,0,0,"Female",1,2734,0
"141",141,20718,"15:38:51",580795203,22506001,"4.0.10.0",1,1,"demographics","age",0,0,0,0,0,0,"24",1,5659,0
"142",142,20718,"15:38:51",580795203,22506001,"4.0.10.0",1,2,"demographics","gender",0,0,0,0,0,0,"Male",1,3695,0
"143",143,20718,"15:38:40",327700477,179188146,"4.0.10.0",1,1,"demographics","age",0,0,0,0,0,0,"",1,2480,0
"144",144,20718,"15:38:19",902429441,92276310,"4.0.10.0",1,1,"demographics","age",0,0,0,0,0,0,"29",1,5295,0
"145",145,20718,"15:38:19",902429441,92276310,"4.0.10.0",1,2,"demographics","gender",0,0,0,0,0,0,"Male",1,8697,0
"146",146,20718,"15:38:11",666339072,398489489,"4.0.10.0",1,1,"demographics","age",0,0,0,0,0,0,"32",1,4255,0
"147",147,20718,"15:38:11",666339072,398489489,"4.0.10.0",1,2,"demographics","gender",0,0,0,0,0,0,"Female",1,3269,0
"148",148,20718,"15:37:37",330375482,344119961,"4.0.10.0",1,1,"demographics","age",0,0,0,0,0,0,"24",1,5734,0
"149",149,20718,"15:37:37",330375482,344119961,"4.0.10.0",1,2,"demographics","gender",0,0,0,0,0,0,"Male",1,4101,0
"150",150,20718,"15:37:34",949179556,45824312,"4.0.10.0",1,1,"demographics","age",0,0,0,0,0,0,"37 ",1,6526,0
"151",151,20718,"15:37:34",949179556,45824312,"4.0.10.0",1,2,"demographics","gender",0,0,0,0,0,0,"female",1,5270,0
"152",152,20718,"15:37:44",668172612,544130035,"4.0.10.0",1,1,"demographics","age",0,0,0,0,0,0,"19",1,4904,0
"153",153,20718,"15:37:44",668172612,544130035,"4.0.10.0",1,2,"demographics","gender",0,0,0,0,0,0,"Male",1,2862,0
"154",154,20718,"15:37:13",29440053,644775899,"4.0.10.0",1,1,"demographics","age",0,0,0,0,0,0,"39",1,5640,0
"155",155,20718,"15:37:13",29440053,644775899,"4.0.10.0",1,2,"demographics","gender",0,0,0,0,0,0,"female",1,5465,0
"156",156,20718,"15:37:21",169568498,43912010,"4.0.10.0",1,1,"demographics","age",0,0,0,0,0,0,"24",1,8424,0
"157",157,20718,"15:37:21",169568498,43912010,"4.0.10.0",1,2,"demographics","gender",0,0,0,0,0,0,"male",1,2926,0
"158",158,20718,"15:37:01",733135889,550467416,"4.0.10.0",1,1,"demographics","age",0,0,0,0,0,0,"47",1,5241,0
"159",159,20718,"15:37:01",733135889,550467416,"4.0.10.0",1,2,"demographics","gender",0,0,0,0,0,0,"Female",1,9757,0
"160",160,20718,"15:36:44",169568498,43912010,"4.0.10.0",1,1,"demographics","age",0,0,0,0,0,0,"24",1,9699,0
"161",161,20718,"15:36:44",169568498,43912010,"4.0.10.0",1,2,"demographics","gender",0,0,0,0,0,0,"male",1,4573,0
"162",162,20718,"15:36:34",65075802,45897747,"4.0.10.0",1,1,"demographics","age",0,0,0,0,0,0,"29",1,4564,0
"163",163,20718,"15:36:34",65075802,45897747,"4.0.10.0",1,2,"demographics","gender",0,0,0,0,0,0,"female",1,3515,0
"164",164,20718,"15:36:05",768693044,445085567,"4.0.10.0",1,1,"demographics","age",0,0,0,0,0,0,"23",1,3444,0
"165",165,20718,"15:36:05",768693044,445085567,"4.0.10.0",1,2,"demographics","gender",0,0,0,0,0,0,"female",1,3113,0
"166",166,20718,"15:35:36",167675697,116822016,"4.0.10.0",1,1,"demographics","age",0,0,0,0,0,0,"31 ",1,5202,0
"167",167,20718,"15:35:36",167675697,116822016,"4.0.10.0",1,2,"demographics","gender",0,0,0,0,0,0,"female",1,3226,0
"168",168,20718,"15:35:28",710909386,573871758,"4.0.10.0",1,1,"demographics","age",0,0,0,0,0,0,"45",1,2596,0
"169",169,20718,"15:35:28",710909386,573871758,"4.0.10.0",1,2,"demographics","gender",0,0,0,0,0,0,"female",1,2966,0
"170",170,20718,"15:34:25",203752813,619115057,"4.0.10.0",1,1,"demographics","age",0,0,0,0,0,0,"26",1,6165,0
"171",171,20718,"15:34:25",203752813,619115057,"4.0.10.0",1,2,"demographics","gender",0,0,0,0,0,0,"female",1,5834,0
"172",172,20718,"15:34:58",665844778,964433421,"4.0.10.0",1,1,"demographics","age",0,0,0,0,0,0,"",1,6113,0
"173",173,20718,"15:34:21",851042241,995011576,"4.0.10.0",1,1,"demographics","age",0,0,0,0,0,0,"31",1,7037,0
"174",174,20718,"15:34:21",851042241,995011576,"4.0.10.0",1,2,"demographics","gender",0,0,0,0,0,0,"female",1,5714,0
"175",175,20718,"15:33:47",926617355,896250499,"4.0.10.0",1,1,"demographics","age",0,0,0,0,0,0,"42",1,7293,0
"176",176,20718,"15:33:47",926617355,896250499,"4.0.10.0",1,2,"demographics","gender",0,0,0,0,0,0,"Female",1,9302,0
"177",177,20718,"11:33:56",36056025,613796132,"4.0.10.0",1,1,"demographics","age",0,0,0,0,0,0,"31",1,4412,0
"178",178,20718,"11:33:56",36056025,613796132,"4.0.10.0",1,2,"demographics","gender",0,0,0,0,0,0,"female",1,5469,0
"179",179,20718,"10:33:44",7760109,204542560,"4.0.10.0",1,1,"demographics","age",0,0,0,0,0,0,"42",1,1944,0
"180",180,20718,"10:33:44",7760109,204542560,"4.0.10.0",1,2,"demographics","gender",0,0,0,0,0,0,"Male",1,2392,0
"181",181,20718,"15:33:10",327700477,179188146,"4.0.10.0",1,1,"demographics","age",0,0,0,0,0,0,"25",1,3737,0
"182",182,20718,"15:33:10",327700477,179188146,"4.0.10.0",1,2,"demographics","gender",0,0,0,0,0,0,"Female ",1,3914,0
"183",183,20718,"10:32:57",7760109,204542560,"4.0.10.0",1,1,"demographics","age",0,0,0,0,0,0,"42",1,8666,0
"184",184,20718,"10:32:57",7760109,204542560,"4.0.10.0",1,2,"demographics","gender",0,0,0,0,0,0,"Malw",1,2264,0
"185",185,20718,"15:32:54",384516945,827785702,"4.0.10.0",1,1,"demographics","age",0,0,0,0,0,0,"24",1,3651,0
"186",186,20718,"15:32:54",384516945,827785702,"4.0.10.0",1,2,"demographics","gender",0,0,0,0,0,0,"Female",1,5801,0
"187",187,20718,"15:32:05",779156016,43711846,"4.0.10.0",1,1,"demographics","age",0,0,0,0,0,0,"63",1,5278,0
"188",188,20718,"15:32:05",779156016,43711846,"4.0.10.0",1,2,"demographics","gender",0,0,0,0,0,0,"female",1,7298,0
"189",189,20718,"15:32:01",733119965,700011012,"4.0.10.0",1,1,"demographics","age",0,0,0,0,0,0,"53",1,11325,0
"190",190,20718,"15:32:01",733119965,700011012,"4.0.10.0",1,2,"demographics","gender",0,0,0,0,0,0,"male",1,8706,0
"191",191,20718,"15:32:14",181661629,641206241,"4.0.10.0",1,1,"demographics","age",0,0,0,0,0,0,"24 ",1,4586,0
"192",192,20718,"15:32:14",181661629,641206241,"4.0.10.0",1,2,"demographics","gender",0,0,0,0,0,0,"female",1,4702,0
"193",193,20718,"15:32:08",527562587,294127425,"4.0.10.0",1,1,"demographics","age",0,0,0,0,0,0,"40",1,4527,0
"194",194,20718,"15:32:08",527562587,294127425,"4.0.10.0",1,2,"demographics","gender",0,0,0,0,0,0,"Male",1,3608,0
"195",195,20718,"15:30:26",966883201,855686521,"4.0.10.0",1,1,"demographics","age",0,0,0,0,0,0,"31 ",1,5652,0
"196",196,20718,"15:30:26",966883201,855686521,"4.0.10.0",1,2,"demographics","gender",0,0,0,0,0,0,"female",1,4003,0
"197",197,20718,"15:30:40",517647934,305219912,"4.0.10.0",1,1,"demographics","age",0,0,0,0,0,0,"54",1,3857,0
"198",198,20718,"15:30:40",517647934,305219912,"4.0.10.0",1,2,"demographics","gender",0,0,0,0,0,0,"Male",1,4982,0
"199",199,20718,"15:29:59",668172612,544130035,"4.0.10.0",1,1,"demographics","age",0,0,0,0,0,0,"19",1,4446,0
"200",200,20718,"15:29:59",668172612,544130035,"4.0.10.0",1,2,"demographics","gender",0,0,0,0,0,0,"Male",1,3467,0
"201",201,20718,"15:29:31",912438003,519817233,"4.0.10.0",1,1,"demographics","age",0,0,0,0,0,0,"37",1,5480,0
"202",202,20718,"15:29:31",912438003,519817233,"4.0.10.0",1,2,"demographics","gender",0,0,0,0,0,0,"male",1,4391,0
"203",203,20718,"15:29:38",222038218,599651811,"4.0.10.0",1,1,"demographics","age",0,0,0,0,0,0,"39",1,3795,0
"204",204,20718,"15:29:38",222038218,599651811,"4.0.10.0",1,2,"demographics","gender",0,0,0,0,0,0,"female",1,6505,0
"205",205,20718,"15:27:13",272871588,549996272,"4.0.10.0",1,1,"demographics","age",0,0,0,0,0,0,"47",1,25065,0
"206",206,20718,"15:27:13",272871588,549996272,"4.0.10.0",1,2,"demographics","gender",0,0,0,0,0,0,"female ",1,17080,0
"207",207,20718,"15:27:14",236178474,438898549,"4.0.10.0",1,1,"demographics","age",0,0,0,0,0,0,"39",1,5204,0
"208",208,20718,"15:27:14",236178474,438898549,"4.0.10.0",1,2,"demographics","gender",0,0,0,0,0,0,"male",1,4026,0
"209",209,20718,"15:27:41",937720328,274582324,"4.0.10.0",1,1,"demographics","age",0,0,0,0,0,0,"34",1,6146,0
"210",210,20718,"15:27:41",937720328,274582324,"4.0.10.0",1,2,"demographics","gender",0,0,0,0,0,0,"female",1,5623,0
"211",211,20718,"15:27:09",665844778,964433421,"4.0.10.0",1,1,"demographics","age",0,0,0,0,0,0,"44",1,7541,0
"212",212,20718,"15:27:09",665844778,964433421,"4.0.10.0",1,2,"demographics","gender",0,0,0,0,0,0,"male",1,4193,0
"213",213,20718,"15:27:12",562456099,86604140,"4.0.10.0",1,1,"demographics","age",0,0,0,0,0,0,"24",1,2005,0
"214",214,20718,"15:27:12",562456099,86604140,"4.0.10.0",1,2,"demographics","gender",0,0,0,0,0,0,"Male",1,2442,0
"215",215,20718,"15:26:41",686432378,962627857,"4.0.10.0",1,1,"demographics","age",0,0,0,0,0,0,"40 ",1,5970,0
"216",216,20718,"15:26:41",686432378,962627857,"4.0.10.0",1,2,"demographics","gender",0,0,0,0,0,0,"female",1,4515,0
"217",217,20718,"15:26:37",320165403,354050540,"4.0.10.0",1,1,"demographics","age",0,0,0,0,0,0,"41 ",1,8603,0
"218",218,20718,"15:26:37",320165403,354050540,"4.0.10.0",1,2,"demographics","gender",0,0,0,0,0,0,"female",1,9806,0
"219",219,20718,"15:26:17",845859784,366442872,"4.0.10.0",1,1,"demographics","age",0,0,0,0,0,0,"33",1,5084,0
"220",220,20718,"15:26:17",845859784,366442872,"4.0.10.0",1,2,"demographics","gender",0,0,0,0,0,0,"female",1,4487,0
"221",221,20718,"15:26:01",832245649,842849993,"4.0.10.0",1,1,"demographics","age",0,0,0,0,0,0,"47",1,10368,0
"222",222,20718,"15:26:01",832245649,842849993,"4.0.10.0",1,2,"demographics","gender",0,0,0,0,0,0,"female",1,5208,0
"223",223,20718,"15:25:41",974529035,700864735,"4.0.10.0",1,1,"demographics","age",0,0,0,0,0,0,"24",1,2831,0
"224",224,20718,"15:25:41",974529035,700864735,"4.0.10.0",1,2,"demographics","gender",0,0,0,0,0,0,"Male",1,3181,0
"225",225,20718,"15:23:54",98477572,682937112,"4.0.10.0",1,1,"demographics","age",0,0,0,0,0,0,"30",1,12515,0
"226",226,20718,"15:23:54",98477572,682937112,"4.0.10.0",1,2,"demographics","gender",0,0,0,0,0,0,"Female",1,9318,0
"227",227,20718,"15:25:50",83632353,129848145,"4.0.10.0",1,1,"demographics","age",0,0,0,0,0,0,"27",1,5363,0
"228",228,20718,"15:25:50",83632353,129848145,"4.0.10.0",1,2,"demographics","gender",0,0,0,0,0,0,"female",1,4792,0
"229",229,20718,"15:25:08",569339137,106054635,"4.0.10.0",1,1,"demographics","age",0,0,0,0,0,0,"38",1,5569,0
"230",230,20718,"15:25:08",569339137,106054635,"4.0.10.0",1,2,"demographics","gender",0,0,0,0,0,0,"female ",1,7333,0
"231",231,20718,"10:24:44",812595629,471007684,"4.0.10.0",1,1,"demographics","age",0,0,0,0,0,0,"31",1,2241,0
"232",232,20718,"10:24:44",812595629,471007684,"4.0.10.0",1,2,"demographics","gender",0,0,0,0,0,0,"female",1,2404,0
"233",233,20718,"15:24:33",329845427,781128104,"4.0.10.0",1,1,"demographics","age",0,0,0,0,0,0,"22",1,10535,0
"234",234,20718,"15:24:33",329845427,781128104,"4.0.10.0",1,2,"demographics","gender",0,0,0,0,0,0,"Female",1,5737,0
"235",235,20718,"15:24:15",890544736,102983176,"4.0.10.0",1,1,"demographics","age",0,0,0,0,0,0,"62",1,7787,0
"236",236,20718,"15:24:15",890544736,102983176,"4.0.10.0",1,2,"demographics","gender",0,0,0,0,0,0,"Female",1,11456,0
"237",237,20718,"15:23:52",19095437,265685730,"4.0.10.0",1,1,"demographics","age",0,0,0,0,0,0,"41",1,3798,0
"238",238,20718,"15:23:52",19095437,265685730,"4.0.10.0",1,2,"demographics","gender",0,0,0,0,0,0,"male",1,2913,0
"239",239,20718,"10:20:53",900559720,384221432,"4.0.10.0",1,1,"demographics","age",0,0,0,0,0,0,"30",1,6000,0
"240",240,20718,"10:20:53",900559720,384221432,"4.0.10.0",1,2,"demographics","gender",0,0,0,0,0,0,"male",1,5993,0
"241",241,20718,"15:22:31",40249739,954456004,"4.0.10.0",1,1,"demographics","age",0,0,0,0,0,0,"35",1,6145,0
"242",242,20718,"15:22:31",40249739,954456004,"4.0.10.0",1,2,"demographics","gender",0,0,0,0,0,0,"female",1,5273,0
"243",243,20718,"15:22:19",134840035,539375907,"4.0.10.0",1,1,"demographics","age",0,0,0,0,0,0,"24",1,6280,0
"244",244,20718,"15:22:19",134840035,539375907,"4.0.10.0",1,2,"demographics","gender",0,0,0,0,0,0,"Male",1,4712,0
"245",245,20718,"15:21:45",958207682,106620885,"4.0.10.0",1,1,"demographics","age",0,0,0,0,0,0,"29",1,5220,0
"246",246,20718,"15:21:45",958207682,106620885,"4.0.10.0",1,2,"demographics","gender",0,0,0,0,0,0,"Female",1,3549,0
"247",247,20718,"15:22:07",161546665,732621860,"4.0.10.0",1,1,"demographics","age",0,0,0,0,0,0,"30",1,4626,0
"248",248,20718,"15:22:07",161546665,732621860,"4.0.10.0",1,2,"demographics","gender",0,0,0,0,0,0,"female",1,6148,0
"249",249,20718,"15:21:57",798274504,486506647,"4.0.10.0",1,1,"demographics","age",0,0,0,0,0,0,"32",1,7357,0
"250",250,20718,"15:21:57",798274504,486506647,"4.0.10.0",1,2,"demographics","gender",0,0,0,0,0,0,"female",1,6919,0
"251",251,20718,"15:21:30",609092103,65123836,"4.0.10.0",1,1,"demographics","age",0,0,0,0,0,0,"25",1,7508,0
"252",252,20718,"15:21:30",609092103,65123836,"4.0.10.0",1,2,"demographics","gender",0,0,0,0,0,0,"male",1,3202,0
"253",253,20718,"15:18:37",902174141,920693717,"4.0.10.0",1,1,"demographics","age",0,0,0,0,0,0,"33",1,7268,0
"254",254,20718,"15:18:37",902174141,920693717,"4.0.10.0",1,2,"demographics","gender",0,0,0,0,0,0,"female",1,3612,0
"255",255,20718,"10:21:15",142147234,71035135,"4.0.10.0",1,1,"demographics","age",0,0,0,0,0,0,"26 ",1,3482,0
"256",256,20718,"10:21:15",142147234,71035135,"4.0.10.0",1,2,"demographics","gender",0,0,0,0,0,0,"female",1,3047,0
"257",257,20718,"15:20:32",744676021,540105130,"4.0.10.0",1,1,"demographics","age",0,0,0,0,0,0,"23",1,5960,0
"258",258,20718,"15:20:32",744676021,540105130,"4.0.10.0",1,2,"demographics","gender",0,0,0,0,0,0,"male",1,2510,0
"259",259,20718,"15:20:08",662054532,622726613,"4.0.10.0",1,1,"demographics","age",0,0,0,0,0,0,"25",1,3849,0
"260",260,20718,"15:20:08",662054532,622726613,"4.0.10.0",1,2,"demographics","gender",0,0,0,0,0,0,"male",1,3255,0
"261",261,20718,"15:19:59",372264520,620965256,"4.0.10.0",1,1,"demographics","age",0,0,0,0,0,0,"44",1,15776,0
"262",262,20718,"15:19:59",372264520,620965256,"4.0.10.0",1,2,"demographics","gender",0,0,0,0,0,0,"Male",1,3826,0
"263",263,20718,"15:20:00",744676021,540105130,"4.0.10.0",1,1,"demographics","age",0,0,0,0,0,0,"23",1,3572,0
"264",264,20718,"15:20:00",744676021,540105130,"4.0.10.0",1,2,"demographics","gender",0,0,0,0,0,0,"Male",1,2697,0
"265",265,20718,"15:19:12",812532574,862861193,"4.0.10.0",1,1,"demographics","age",0,0,0,0,0,0,"50",1,7413,0
"266",266,20718,"15:19:12",812532574,862861193,"4.0.10.0",1,2,"demographics","gender",0,0,0,0,0,0,"female",1,5510,0
"267",267,20718,"10:18:40",112669951,561545994,"4.0.10.0",1,1,"demographics","age",0,0,0,0,0,0,"35",1,6514,0
"268",268,20718,"10:18:40",112669951,561545994,"4.0.10.0",1,2,"demographics","gender",0,0,0,0,0,0,"male",1,9519,0
"269",269,20718,"15:18:37",493650065,789953235,"4.0.10.0",1,1,"demographics","age",0,0,0,0,0,0,"19",1,3618,0
"270",270,20718,"15:18:37",493650065,789953235,"4.0.10.0",1,2,"demographics","gender",0,0,0,0,0,0,"Male",1,4180,0
"271",271,20718,"15:18:34",476956347,587872212,"4.0.10.0",1,1,"demographics","age",0,0,0,0,0,0,"18",1,2471,0
"272",272,20718,"15:18:34",476956347,587872212,"4.0.10.0",1,2,"demographics","gender",0,0,0,0,0,0,"Female",1,4532,0
"273",273,20718,"15:18:10",595202549,126336192,"4.0.10.0",1,1,"demographics","age",0,0,0,0,0,0,"44",1,3343,0
"274",274,20718,"15:18:10",595202549,126336192,"4.0.10.0",1,2,"demographics","gender",0,0,0,0,0,0,"female",1,6150,0
"275",275,20718,"15:17:34",476956347,587872212,"4.0.10.0",1,1,"demographics","age",0,0,0,0,0,0,"18 ",1,3011,0
"276",276,20718,"15:17:34",476956347,587872212,"4.0.10.0",1,2,"demographics","gender",0,0,0,0,0,0,"Female",1,2555,0
"277",277,20718,"15:16:32",307331731,586836790,"4.0.10.0",1,1,"demographics","age",0,0,0,0,0,0,"31",1,3378,0
"278",278,20718,"15:16:32",307331731,586836790,"4.0.10.0",1,2,"demographics","gender",0,0,0,0,0,0,"male",1,3889,0
"279",279,20718,"15:16:24",476956347,587872212,"4.0.10.0",1,1,"demographics","age",0,0,0,0,0,0,"18",1,7836,0
"280",280,20718,"15:16:24",476956347,587872212,"4.0.10.0",1,2,"demographics","gender",0,0,0,0,0,0,"Female",1,3448,0
"281",281,20718,"15:15:22",951988030,260314619,"4.0.10.0",1,1,"demographics","age",0,0,0,0,0,0,"35",1,4336,0
"282",282,20718,"15:15:22",951988030,260314619,"4.0.10.0",1,2,"demographics","gender",0,0,0,0,0,0,"female",1,4282,0
"283",283,20718,"15:14:52",392762348,819540299,"4.0.10.0",1,1,"demographics","age",0,0,0,0,0,0,"35",1,6565,0
"284",284,20718,"15:14:52",392762348,819540299,"4.0.10.0",1,2,"demographics","gender",0,0,0,0,0,0,"Male",1,5600,0
"285",285,20718,"09:14:08",128687514,593643129,"4.0.10.0",1,1,"demographics","age",0,0,0,0,0,0,"51",1,6369,0
"286",286,20718,"09:14:08",128687514,593643129,"4.0.10.0",1,2,"demographics","gender",0,0,0,0,0,0,"female",1,7428,0
"287",287,20718,"15:14:29",108318672,103983990,"4.0.10.0",1,1,"demographics","age",0,0,0,0,0,0,"20 ",1,3902,0
"288",288,20718,"15:14:29",108318672,103983990,"4.0.10.0",1,2,"demographics","gender",0,0,0,0,0,0,"Female",1,4281,0
"289",289,20718,"15:14:15",786540429,862519812,"4.0.10.0",1,1,"demographics","age",0,0,0,0,0,0,"20",1,4113,0
"290",290,20718,"15:14:15",786540429,862519812,"4.0.10.0",1,2,"demographics","gender",0,0,0,0,0,0,"female",1,6385,0
"291",291,20718,"15:14:37",318896162,113359081,"4.0.10.0",1,1,"demographics","age",0,0,0,0,0,0,"27 ",1,3921,0
"292",292,20718,"15:14:37",318896162,113359081,"4.0.10.0",1,2,"demographics","gender",0,0,0,0,0,0,"female",1,6723,0
"293",293,20718,"15:13:47",94181930,728685931,"4.0.10.0",1,1,"demographics","age",0,0,0,0,0,0,"47",1,13335,0
"294",294,20718,"15:13:47",94181930,728685931,"4.0.10.0",1,2,"demographics","gender",0,0,0,0,0,0,"male",1,3911,0
"295",295,20718,"15:12:29",224640793,207614447,"4.0.10.0",1,1,"demographics","age",0,0,0,0,0,0,"27",1,4341,0
"296",296,20718,"15:12:29",224640793,207614447,"4.0.10.0",1,2,"demographics","gender",0,0,0,0,0,0,"male",1,4309,0
"297",297,20718,"09:12:25",423094119,641734445,"4.0.10.0",1,1,"demographics","age",0,0,0,0,0,0,"20",1,8237,0
"298",298,20718,"09:12:25",423094119,641734445,"4.0.10.0",1,2,"demographics","gender",0,0,0,0,0,0,"female",1,6185,0
"299",299,20718,"09:11:41",423094119,641734445,"4.0.10.0",1,1,"demographics","age",0,0,0,0,0,0,"20",1,5081,0
"300",300,20718,"09:11:41",423094119,641734445,"4.0.10.0",1,2,"demographics","gender",0,0,0,0,0,0,"female",1,8251,0
"301",301,20718,"15:11:33",759498665,672756570,"4.0.10.0",1,1,"demographics","age",0,0,0,0,0,0,"37",1,3360,0
"302",302,20718,"15:11:33",759498665,672756570,"4.0.10.0",1,2,"demographics","gender",0,0,0,0,0,0,"male",1,3092,0
"303",303,20718,"15:09:41",902174141,920693717,"4.0.10.0",1,1,"demographics","age",0,0,0,0,0,0,"33",1,4415,0
"304",304,20718,"15:09:41",902174141,920693717,"4.0.10.0",1,2,"demographics","gender",0,0,0,0,0,0,"female",1,5832,0
"305",305,20718,"15:09:29",393476241,38779001,"4.0.10.0",1,1,"demographics","age",0,0,0,0,0,0,"38",1,4713,0
"306",306,20718,"15:09:29",393476241,38779001,"4.0.10.0",1,2,"demographics","gender",0,0,0,0,0,0,"Female",1,4156,0
"307",307,20718,"07:09:51",197034359,405880925,"4.0.10.0",1,1,"demographics","age",0,0,0,0,0,0,"43",1,5253,0
"308",308,20718,"07:09:51",197034359,405880925,"4.0.10.0",1,2,"demographics","gender",0,0,0,0,0,0,"Male",1,7641,0
"309",309,20718,"15:09:15",547101709,517726855,"4.0.10.0",1,1,"demographics","age",0,0,0,0,0,0,"26",1,3797,0
"310",310,20718,"15:09:15",547101709,517726855,"4.0.10.0",1,2,"demographics","gender",0,0,0,0,0,0,"male",1,3617,0
"311",311,20718,"15:09:16",835439396,986250624,"4.0.10.0",1,1,"demographics","age",0,0,0,0,0,0,"53",1,4281,0
"312",312,20718,"15:09:16",835439396,986250624,"4.0.10.0",1,2,"demographics","gender",0,0,0,0,0,0,"male",1,5037,0
"313",313,20718,"15:09:09",318896162,113359081,"4.0.10.0",1,1,"demographics","age",0,0,0,0,0,0,"27 ",1,4353,0
"314",314,20718,"15:09:09",318896162,113359081,"4.0.10.0",1,2,"demographics","gender",0,0,0,0,0,0,"female",1,3618,0
"315",315,20718,"15:08:09",656092306,992967929,"4.0.10.0",1,1,"demographics","age",0,0,0,0,0,0,"41",1,3953,0
"316",316,20718,"15:08:09",656092306,992967929,"4.0.10.0",1,2,"demographics","gender",0,0,0,0,0,0,"Female",1,4829,0
"317",317,20718,"15:07:58",1845077,62983505,"4.0.10.0",1,1,"demographics","age",0,0,0,0,0,0,"63",1,4803,0
"318",318,20718,"15:07:58",1845077,62983505,"4.0.10.0",1,2,"demographics","gender",0,0,0,0,0,0,"Female",1,8117,0
"319",319,20718,"07:07:36",980849540,693366393,"4.0.10.0",1,1,"demographics","age",0,0,0,0,0,0,"30 ",1,5958,0
"320",320,20718,"07:07:36",980849540,693366393,"4.0.10.0",1,2,"demographics","gender",0,0,0,0,0,0,"female",1,3422,0
"321",321,20718,"15:07:52",283897005,172722031,"4.0.10.0",1,1,"demographics","age",0,0,0,0,0,0,"46",1,6417,0
"322",322,20718,"15:07:52",283897005,172722031,"4.0.10.0",1,2,"demographics","gender",0,0,0,0,0,0,"female",1,5808,0
"323",323,20718,"15:06:50",705168297,944683843,"4.0.10.0",1,1,"demographics","age",0,0,0,0,0,0,"27",1,23579,0
"324",324,20718,"15:06:50",705168297,944683843,"4.0.10.0",1,2,"demographics","gender",0,0,0,0,0,0,"female",1,4170,0
"325",325,20718,"15:07:37",316764589,748063977,"4.0.10.0",1,1,"demographics","age",0,0,0,0,0,0,"48",1,3982,0
"326",326,20718,"15:07:37",316764589,748063977,"4.0.10.0",1,2,"demographics","gender",0,0,0,0,0,0,"female",1,4918,0
"327",327,20718,"15:07:32",301354508,301560772,"4.0.10.0",1,1,"demographics","age",0,0,0,0,0,0,"26 ",1,4910,0
"328",328,20718,"15:07:32",301354508,301560772,"4.0.10.0",1,2,"demographics","gender",0,0,0,0,0,0,"Male",1,3586,0
"329",329,20718,"10:06:50",127551015,983422513,"4.0.10.0",1,1,"demographics","age",0,0,0,0,0,0,"30",1,4474,0
"330",330,20718,"10:06:50",127551015,983422513,"4.0.10.0",1,2,"demographics","gender",0,0,0,0,0,0,"male",1,2897,0
"331",331,20718,"09:07:25",271273632,942206850,"4.0.10.0",1,1,"demographics","age",0,0,0,0,0,0,"45",1,6401,0
"332",332,20718,"09:07:25",271273632,942206850,"4.0.10.0",1,2,"demographics","gender",0,0,0,0,0,0,"female",1,6652,0
"333",333,20718,"15:06:16",149521855,915306710,"4.0.10.0",1,1,"demographics","age",0,0,0,0,0,0,"29 ",1,7929,0
"334",334,20718,"15:06:16",149521855,915306710,"4.0.10.0",1,2,"demographics","gender",0,0,0,0,0,0,"Female",1,4216,0
"335",335,20718,"17:05:46",138909529,755258994,"4.0.10.0",1,1,"demographics","age",0,0,0,0,0,0,"28",1,19713,0
"336",336,20718,"17:05:46",138909529,755258994,"4.0.10.0",1,2,"demographics","gender",0,0,0,0,0,0,"Female",1,5742,0
"337",337,20718,"15:05:01",815022609,445394746,"4.0.10.0",1,1,"demographics","age",0,0,0,0,0,0,"21",1,3985,0
"338",338,20718,"15:05:01",815022609,445394746,"4.0.10.0",1,2,"demographics","gender",0,0,0,0,0,0,"Female",1,3386,0
"339",339,20718,"15:05:08",230201583,445192198,"4.0.10.0",1,1,"demographics","age",0,0,0,0,0,0,"37 ",1,5049,0
"340",340,20718,"15:05:08",230201583,445192198,"4.0.10.0",1,2,"demographics","gender",0,0,0,0,0,0,"female",1,6686,0
"341",341,20718,"15:04:53",966939802,317841342,"4.0.10.0",1,1,"demographics","age",0,0,0,0,0,0,"41",1,2909,0
"342",342,20718,"15:04:53",966939802,317841342,"4.0.10.0",1,2,"demographics","gender",0,0,0,0,0,0,"Male",1,2732,0
"343",343,20718,"15:05:19",332137109,561714654,"4.0.10.0",1,1,"demographics","age",0,0,0,0,0,0,"59",1,5463,0
"344",344,20718,"15:05:19",332137109,561714654,"4.0.10.0",1,2,"demographics","gender",0,0,0,0,0,0,"female",1,4784,0
"345",345,20718,"15:05:24",815211187,787704087,"4.0.10.0",1,1,"demographics","age",0,0,0,0,0,0,"46",1,6473,0
"346",346,20718,"15:05:24",815211187,787704087,"4.0.10.0",1,2,"demographics","gender",0,0,0,0,0,0,"male",1,5949,0
"347",347,20718,"15:05:21",276042592,445794281,"4.0.10.0",1,1,"demographics","age",0,0,0,0,0,0,"38",1,4550,0
"348",348,20718,"15:05:21",276042592,445794281,"4.0.10.0",1,2,"demographics","gender",0,0,0,0,0,0,"Male",1,3907,0
"349",349,20718,"15:04:11",443012642,667960884,"4.0.10.0",1,1,"demographics","age",0,0,0,0,0,0,"34",1,7626,0
"350",350,20718,"15:04:11",443012642,667960884,"4.0.10.0",1,2,"demographics","gender",0,0,0,0,0,0,"Male",1,3640,0
"351",351,20718,"15:05:13",199143570,14020169,"4.0.10.0",1,1,"demographics","age",0,0,0,0,0,0,"44",1,4623,0
"352",352,20718,"15:05:13",199143570,14020169,"4.0.10.0",1,2,"demographics","gender",0,0,0,0,0,0,"FEMALE",1,3726,0
"353",353,20718,"15:04:55",674425440,539055050,"4.0.10.0",1,1,"demographics","age",0,0,0,0,0,0,"20 ",1,4695,0
"354",354,20718,"15:04:55",674425440,539055050,"4.0.10.0",1,2,"demographics","gender",0,0,0,0,0,0,"Female",1,5131,0
"355",355,20718,"15:03:39",693306355,956843913,"4.0.10.0",1,1,"demographics","age",0,0,0,0,0,0,"58",1,8478,0
"356",356,20718,"15:03:39",693306355,956843913,"4.0.10.0",1,2,"demographics","gender",0,0,0,0,0,0,"female",1,5234,0
"357",357,20718,"15:03:43",133175053,542218727,"4.0.10.0",1,1,"demographics","age",0,0,0,0,0,0,"54",1,3356,0
"358",358,20718,"15:03:43",133175053,542218727,"4.0.10.0",1,2,"demographics","gender",0,0,0,0,0,0,"female",1,6028,0
"359",359,20718,"15:03:44",816995396,396485092,"4.0.10.0",1,1,"demographics","age",0,0,0,0,0,0,"35",1,4124,0
"360",360,20718,"15:03:44",816995396,396485092,"4.0.10.0",1,2,"demographics","gender",0,0,0,0,0,0,"Female",1,6420,0
"361",361,20718,"15:03:32",674425440,539055050,"4.0.10.0",1,1,"demographics","age",0,0,0,0,0,0,"20 ",1,4400,0
"362",362,20718,"15:03:32",674425440,539055050,"4.0.10.0",1,2,"demographics","gender",0,0,0,0,0,0,"Female",1,3955,0
"363",363,20718,"15:03:22",734096177,479384312,"4.0.10.0",1,1,"demographics","age",0,0,0,0,0,0,"19 ",1,5858,0
"364",364,20718,"15:03:22",734096177,479384312,"4.0.10.0",1,2,"demographics","gender",0,0,0,0,0,0,"female",1,4440,0
"365",365,20718,"09:03:13",152906667,131557731,"4.0.10.0",1,1,"demographics","age",0,0,0,0,0,0,"48",1,6259,0
"366",366,20718,"09:03:13",152906667,131557731,"4.0.10.0",1,2,"demographics","gender",0,0,0,0,0,0,"female",1,4682,0
"367",367,20718,"15:02:23",674425440,539055050,"4.0.10.0",1,1,"demographics","age",0,0,0,0,0,0,"20",1,8697,0
"368",368,20718,"15:02:23",674425440,539055050,"4.0.10.0",1,2,"demographics","gender",0,0,0,0,0,0,"Female",1,7073,0
"369",369,20718,"10:01:41",617304781,666581979,"4.0.10.0",1,1,"demographics","age",0,0,0,0,0,0,"25",1,10926,0
"370",370,20718,"10:01:41",617304781,666581979,"4.0.10.0",1,2,"demographics","gender",0,0,0,0,0,0,"female",1,5085,0
"371",371,20718,"15:01:44",834056717,452792693,"4.0.10.0",1,1,"demographics","age",0,0,0,0,0,0,"60",1,4186,0
"372",372,20718,"15:01:44",834056717,452792693,"4.0.10.0",1,2,"demographics","gender",0,0,0,0,0,0,"female",1,4493,0
"373",373,20718,"15:01:48",13286271,868001054,"4.0.10.0",1,1,"demographics","age",0,0,0,0,0,0,"22",1,9133,0
"374",374,20718,"15:01:48",13286271,868001054,"4.0.10.0",1,2,"demographics","gender",0,0,0,0,0,0,"Female",1,3734,0
"375",375,20718,"10:00:49",229703549,54779480,"4.0.10.0",1,1,"demographics","age",0,0,0,0,0,0,"18",1,3248,0
"376",376,20718,"10:00:49",229703549,54779480,"4.0.10.0",1,2,"demographics","gender",0,0,0,0,0,0,"Male",1,4978,0
"377",377,20718,"15:00:23",29485721,35342861,"4.0.10.0",1,1,"demographics","age",0,0,0,0,0,0,"27",1,4218,0
"378",378,20718,"15:00:23",29485721,35342861,"4.0.10.0",1,2,"demographics","gender",0,0,0,0,0,0,"male",1,3512,0
"379",379,20718,"09:59:54",309731438,584437081,"4.0.10.0",1,1,"demographics","age",0,0,0,0,0,0,"34",1,5310,0
"380",380,20718,"09:59:54",309731438,584437081,"4.0.10.0",1,2,"demographics","gender",0,0,0,0,0,0,"Male",1,9941,0
"381",381,20718,"08:59:12",756703323,89350505,"4.0.10.0",1,1,"demographics","age",0,0,0,0,0,0,"64",1,5700,0
"382",382,20718,"08:59:12",756703323,89350505,"4.0.10.0",1,2,"demographics","gender",0,0,0,0,0,0,"male",1,4078,0
"383",383,20718,"14:59:53",865031259,29137271,"4.0.10.0",1,1,"demographics","age",0,0,0,0,0,0,"33",1,4466,0
"384",384,20718,"14:59:53",865031259,29137271,"4.0.10.0",1,2,"demographics","gender",0,0,0,0,0,0,"female",1,9412,0
"385",385,20718,"09:59:40",710580921,502899565,"4.0.10.0",1,1,"demographics","age",0,0,0,0,0,0,"18 ",1,5351,0
"386",386,20718,"09:59:40",710580921,502899565,"4.0.10.0",1,2,"demographics","gender",0,0,0,0,0,0,"Male",1,8661,0
"387",387,20718,"08:59:27",261349255,341249261,"4.0.10.0",1,1,"demographics","age",0,0,0,0,0,0,"21",1,7325,0
"388",388,20718,"08:59:27",261349255,341249261,"4.0.10.0",1,2,"demographics","gender",0,0,0,0,0,0,"MALE",1,5336,0
"389",389,20718,"14:59:30",741323463,80366570,"4.0.10.0",1,1,"demographics","age",0,0,0,0,0,0,"35",1,3256,0
"390",390,20718,"14:59:30",741323463,80366570,"4.0.10.0",1,2,"demographics","gender",0,0,0,0,0,0,"female",1,4556,0
"391",391,20718,"14:58:20",966939802,317841342,"4.0.10.0",1,1,"demographics","age",0,0,0,0,0,0,"41",1,2996,0
"392",392,20718,"14:58:20",966939802,317841342,"4.0.10.0",1,2,"demographics","gender",0,0,0,0,0,0,"Male",1,7904,0
"393",393,20718,"14:59:12",14453898,270327266,"4.0.10.0",1,1,"demographics","age",0,0,0,0,0,0,"21",1,6967,0
"394",394,20718,"14:59:12",14453898,270327266,"4.0.10.0",1,2,"demographics","gender",0,0,0,0,0,0,"female",1,2771,0
"395",395,20718,"14:58:39",547900789,563072740,"4.0.10.0",1,1,"demographics","age",0,0,0,0,0,0,"33 ",1,4928,0
"396",396,20718,"14:58:39",547900789,563072740,"4.0.10.0",1,2,"demographics","gender",0,0,0,0,0,0,"female",1,4600,0
"397",397,20718,"14:58:24",741323463,80366570,"4.0.10.0",1,1,"demographics","age",0,0,0,0,0,0,"35 ",1,6593,0
"398",398,20718,"14:58:24",741323463,80366570,"4.0.10.0",1,2,"demographics","gender",0,0,0,0,0,0,"female",1,4127,0
"399",399,20718,"14:57:35",230201583,445192198,"4.0.10.0",1,1,"demographics","age",0,0,0,0,0,0,"37",1,5765,0
"400",400,20718,"14:57:35",230201583,445192198,"4.0.10.0",1,2,"demographics","gender",0,0,0,0,0,0,"female",1,6783,0
"401",401,20718,"14:57:50",366437018,456132718,"4.0.10.0",1,1,"demographics","age",0,0,0,0,0,0,"30",1,3962,0
"402",402,20718,"14:57:50",366437018,456132718,"4.0.10.0",1,2,"demographics","gender",0,0,0,0,0,0,"female",1,6009,0
"403",403,20718,"14:57:17",999049429,847004382,"4.0.10.0",1,1,"demographics","age",0,0,0,0,0,0,"33",1,7659,0
"404",404,20718,"14:57:17",999049429,847004382,"4.0.10.0",1,2,"demographics","gender",0,0,0,0,0,0,"female",1,18445,0
"405",405,20718,"14:48:31",776774748,44915286,"4.0.10.0",1,1,"demographics","age",0,0,0,0,0,0,"43",1,4174,0
"406",406,20718,"14:48:31",776774748,44915286,"4.0.10.0",1,2,"demographics","gender",0,0,0,0,0,0,"male",1,5286,0
"407",407,20718,"14:57:10",746658182,685597056,"4.0.10.0",1,1,"demographics","age",0,0,0,0,0,0,"22",1,4341,0
"408",408,20718,"14:57:10",746658182,685597056,"4.0.10.0",1,2,"demographics","gender",0,0,0,0,0,0,"Female",1,5391,0
"409",409,20718,"14:56:40",329477,431925768,"4.0.10.0",1,1,"demographics","age",0,0,0,0,0,0,"28",1,4837,0
"410",410,20718,"14:56:40",329477,431925768,"4.0.10.0",1,2,"demographics","gender",0,0,0,0,0,0,"Male",1,3282,0
"411",411,20718,"14:55:31",216668436,386246848,"4.0.10.0",1,1,"demographics","age",0,0,0,0,0,0,"32",1,10114,0
"412",412,20718,"14:55:31",216668436,386246848,"4.0.10.0",1,2,"demographics","gender",0,0,0,0,0,0,"male",1,3621,0
"413",413,20718,"14:54:39",505931369,143128871,"4.0.10.0",1,1,"demographics","age",0,0,0,0,0,0,"30",1,6719,0
"414",414,20718,"14:54:39",505931369,143128871,"4.0.10.0",1,2,"demographics","gender",0,0,0,0,0,0,"male",1,5324,0
"415",415,20718,"14:54:30",43174017,605886233,"4.0.10.0",1,1,"demographics","age",0,0,0,0,0,0,"55",1,6035,0
"416",416,20718,"14:54:30",43174017,605886233,"4.0.10.0",1,2,"demographics","gender",0,0,0,0,0,0,"Female",1,7899,0
"417",417,20718,"14:54:11",644804116,77526532,"4.0.10.0",1,1,"demographics","age",0,0,0,0,0,0,"40",1,3122,0
"418",418,20718,"14:54:11",644804116,77526532,"4.0.10.0",1,2,"demographics","gender",0,0,0,0,0,0,"female",1,5407,0
"419",419,20718,"14:52:52",839433162,983434691,"4.0.10.0",1,1,"demographics","age",0,0,0,0,0,0,"32",1,3433,0
"420",420,20718,"14:52:52",839433162,983434691,"4.0.10.0",1,2,"demographics","gender",0,0,0,0,0,0,"female",1,6771,0
"421",421,20718,"14:51:03",646214933,176652930,"4.0.10.0",1,1,"demographics","age",0,0,0,0,0,0,"45",1,3918,0
"422",422,20718,"14:51:03",646214933,176652930,"4.0.10.0",1,2,"demographics","gender",0,0,0,0,0,0,"female ",1,20588,0
"423",423,20718,"14:51:47",680465321,384363251,"4.0.10.0",1,1,"demographics","age",0,0,0,0,0,0,"46",1,7689,0
"424",424,20718,"14:51:47",680465321,384363251,"4.0.10.0",1,2,"demographics","gender",0,0,0,0,0,0,"Female",1,6717,0
"425",425,20718,"14:51:39",366437018,456132718,"4.0.10.0",1,1,"demographics","age",0,0,0,0,0,0,"30",1,3440,0
"426",426,20718,"14:51:39",366437018,456132718,"4.0.10.0",1,2,"demographics","gender",0,0,0,0,0,0,"Female",1,3611,0
"427",427,20718,"14:51:31",848315010,263450431,"4.0.10.0",1,1,"demographics","age",0,0,0,0,0,0,"18",1,3211,0
"428",428,20718,"14:51:31",848315010,263450431,"4.0.10.0",1,2,"demographics","gender",0,0,0,0,0,0,"male",1,4631,0
"429",429,20718,"14:50:52",93395433,363223603,"4.0.10.0",1,1,"demographics","age",0,0,0,0,0,0,"25",1,7109,0
"430",430,20718,"14:50:52",93395433,363223603,"4.0.10.0",1,2,"demographics","gender",0,0,0,0,0,0,"Female",1,2773,0
"431",431,20718,"14:51:10",221818642,61784683,"4.0.10.0",1,1,"demographics","age",0,0,0,0,0,0,"47",1,5119,0
"432",432,20718,"14:51:10",221818642,61784683,"4.0.10.0",1,2,"demographics","gender",0,0,0,0,0,0,"female",1,5853,0
"433",433,20718,"14:50:18",620592044,811663184,"4.0.10.0",1,1,"demographics","age",0,0,0,0,0,0,"30",1,3732,0
"434",434,20718,"14:50:18",620592044,811663184,"4.0.10.0",1,2,"demographics","gender",0,0,0,0,0,0,"Female",1,3978,0
"435",435,20718,"14:50:31",8435401,713895250,"4.0.10.0",1,1,"demographics","age",0,0,0,0,0,0,"30",1,4390,0
"436",436,20718,"14:50:31",8435401,713895250,"4.0.10.0",1,2,"demographics","gender",0,0,0,0,0,0,"Female",1,5177,0
"437",437,20718,"14:49:50",669718117,4497834,"4.0.10.0",1,1,"demographics","age",0,0,0,0,0,0,"20 ",1,6517,0
"438",438,20718,"14:49:50",669718117,4497834,"4.0.10.0",1,2,"demographics","gender",0,0,0,0,0,0,"female",1,3152,0
"439",439,20718,"14:49:50",161089003,52391494,"4.0.10.0",1,1,"demographics","age",0,0,0,0,0,0,"41",1,6039,0
"440",440,20718,"14:49:50",161089003,52391494,"4.0.10.0",1,2,"demographics","gender",0,0,0,0,0,0,"female",1,12006,0
"441",441,20718,"14:48:16",536080623,68906880,"4.0.10.0",1,1,"demographics","age",0,0,0,0,0,0,"47",1,6159,0
"442",442,20718,"14:48:16",536080623,68906880,"4.0.10.0",1,2,"demographics","gender",0,0,0,0,0,0,"male",1,6423,0
"443",443,20718,"06:48:01",725101815,535315539,"4.0.10.0",1,1,"demographics","age",0,0,0,0,0,0,"54",1,4933,0
"444",444,20718,"06:48:01",725101815,535315539,"4.0.10.0",1,2,"demographics","gender",0,0,0,0,0,0,"female",1,6072,0
"445",445,20718,"09:49:05",821707153,461598033,"4.0.10.0",1,1,"demographics","age",0,0,0,0,0,0,"54",1,4529,0
"446",446,20718,"09:49:05",821707153,461598033,"4.0.10.0",1,2,"demographics","gender",0,0,0,0,0,0,"female",1,5448,0
"447",447,20718,"14:48:51",7714737,986991006,"4.0.10.0",1,1,"demographics","age",0,0,0,0,0,0,"54",1,6535,0
"448",448,20718,"14:48:51",7714737,986991006,"4.0.10.0",1,2,"demographics","gender",0,0,0,0,0,0,"male",1,7182,0
"449",449,20718,"14:48:20",531198301,190340449,"4.0.10.0",1,1,"demographics","age",0,0,0,0,0,0,"28 ",1,4941,0
"450",450,20718,"14:48:20",531198301,190340449,"4.0.10.0",1,2,"demographics","gender",0,0,0,0,0,0,"female",1,3721,0
"451",451,20718,"14:48:06",180231868,713936658,"4.0.10.0",1,1,"demographics","age",0,0,0,0,0,0,"65",1,7077,0
"452",452,20718,"14:48:06",180231868,713936658,"4.0.10.0",1,2,"demographics","gender",0,0,0,0,0,0,"Female",1,9983,0
"453",453,20718,"14:47:04",571414422,423007866,"4.0.10.0",1,1,"demographics","age",0,0,0,0,0,0,"34",1,3179,0
"454",454,20718,"14:47:04",571414422,423007866,"4.0.10.0",1,2,"demographics","gender",0,0,0,0,0,0,"female",1,5548,0
"455",455,20718,"14:44:06",799847500,850004642,"4.0.10.0",1,1,"demographics","age",0,0,0,0,0,0,"35",1,5547,0
"456",456,20718,"14:44:06",799847500,850004642,"4.0.10.0",1,2,"demographics","gender",0,0,0,0,0,0,"female",1,5611,0
"457",457,20718,"14:45:23",675580241,609200910,"4.0.10.0",1,1,"demographics","age",0,0,0,0,0,0,"21 ",1,5689,0
"458",458,20718,"14:45:23",675580241,609200910,"4.0.10.0",1,2,"demographics","gender",0,0,0,0,0,0,"male",1,10430,0
"459",459,20718,"09:44:40",17914006,703624742,"4.0.10.0",1,1,"demographics","age",0,0,0,0,0,0,"33",1,6656,0
"460",460,20718,"09:44:40",17914006,703624742,"4.0.10.0",1,2,"demographics","gender",0,0,0,0,0,0,"female",1,4673,0
"461",461,20718,"14:44:24",326406150,887372462,"4.0.10.0",1,1,"demographics","age",0,0,0,0,0,0,"37",1,13919,0
"462",462,20718,"14:44:24",326406150,887372462,"4.0.10.0",1,2,"demographics","gender",0,0,0,0,0,0,"Female",1,4110,0
"463",463,20718,"14:43:38",933054487,131774082,"4.0.10.0",1,1,"demographics","age",0,0,0,0,0,0,"50",1,3870,0
"464",464,20718,"14:43:38",933054487,131774082,"4.0.10.0",1,2,"demographics","gender",0,0,0,0,0,0,"Male",1,4018,0
"465",465,20718,"14:43:01",649368608,72170145,"4.0.10.0",1,1,"demographics","age",0,0,0,0,0,0,"27",1,4549,0
"466",466,20718,"14:43:01",649368608,72170145,"4.0.10.0",1,2,"demographics","gender",0,0,0,0,0,0,"male",1,5657,0
"467",467,20718,"14:41:48",161089003,52391494,"4.0.10.0",1,1,"demographics","age",0,0,0,0,0,0,"41",1,7233,0
"468",468,20718,"14:41:48",161089003,52391494,"4.0.10.0",1,2,"demographics","gender",0,0,0,0,0,0,"female",1,6460,0
"469",469,20718,"09:41:15",606388054,678393096,"4.0.10.0",1,1,"demographics","age",0,0,0,0,0,0,"32 ",1,4218,0
"470",470,20718,"09:41:15",606388054,678393096,"4.0.10.0",1,2,"demographics","gender",0,0,0,0,0,0,"female",1,3926,0
"471",471,20718,"14:40:42",989007970,832682047,"4.0.10.0",1,1,"demographics","age",0,0,0,0,0,0,"30",1,4832,0
"472",472,20718,"14:40:42",989007970,832682047,"4.0.10.0",1,2,"demographics","gender",0,0,0,0,0,0,"f",1,6823,0
"473",473,20718,"15:39:19",415433224,233943787,"4.0.10.0",1,1,"demographics","age",0,0,0,0,0,0,"38 ",1,4389,0
"474",474,20718,"15:39:19",415433224,233943787,"4.0.10.0",1,2,"demographics","gender",0,0,0,0,0,0,"male ",1,4764,0
"475",475,20718,"14:40:26",739083929,693171305,"4.0.10.0",1,1,"demographics","age",0,0,0,0,0,0,"26",1,5806,0
"476",476,20718,"14:40:26",739083929,693171305,"4.0.10.0",1,2,"demographics","gender",0,0,0,0,0,0,"female",1,5239,0
"477",477,20718,"14:39:12",740231180,982397589,"4.0.10.0",1,1,"demographics","age",0,0,0,0,0,0,"50",1,12127,0
"478",478,20718,"14:39:12",740231180,982397589,"4.0.10.0",1,2,"demographics","gender",0,0,0,0,0,0,"Male",1,4233,0
"479",479,20718,"22:38:52",901220679,747839560,"4.0.10.0",1,1,"demographics","age",0,0,0,0,0,0,"30",1,5282,0
"480",480,20718,"22:38:52",901220679,747839560,"4.0.10.0",1,2,"demographics","gender",0,0,0,0,0,0,"Male",1,4159,0
"481",481,20718,"14:38:27",885846777,569594414,"4.0.10.0",1,1,"demographics","age",0,0,0,0,0,0,"39",1,3019,0
"482",482,20718,"14:38:27",885846777,569594414,"4.0.10.0",1,2,"demographics","gender",0,0,0,0,0,0,"Female",1,3064,0
"483",483,20718,"14:38:00",597942246,224925624,"4.0.10.0",1,1,"demographics","age",0,0,0,0,0,0,"23 ",1,6399,0
"484",484,20718,"14:38:00",597942246,224925624,"4.0.10.0",1,2,"demographics","gender",0,0,0,0,0,0,"MALE",1,3554,0
"485",485,20718,"14:38:05",170862131,432053156,"4.0.10.0",1,1,"demographics","age",0,0,0,0,0,0,"49",1,10046,0
"486",486,20718,"14:36:37",459343643,363524221,"4.0.10.0",1,1,"demographics","age",0,0,0,0,0,0,"62",1,5816,0
"487",487,20718,"14:36:37",459343643,363524221,"4.0.10.0",1,2,"demographics","gender",0,0,0,0,0,0,"Female",1,5646,0
"488",488,20718,"14:37:12",631182806,91445973,"4.0.10.0",1,1,"demographics","age",0,0,0,0,0,0,"28",1,2672,0
"489",489,20718,"14:37:12",631182806,91445973,"4.0.10.0",1,2,"demographics","gender",0,0,0,0,0,0,"female",1,3011,0
"490",490,20718,"14:35:26",536149093,896106144,"4.0.10.0",1,1,"demographics","age",0,0,0,0,0,0,"32",1,5045,0
"491",491,20718,"14:35:26",536149093,896106144,"4.0.10.0",1,2,"demographics","gender",0,0,0,0,0,0,"female",1,7553,0
"492",492,20718,"14:32:59",711343915,353484657,"4.0.10.0",1,1,"demographics","age",0,0,0,0,0,0,"26",1,4762,0
"493",493,20718,"14:32:59",711343915,353484657,"4.0.10.0",1,2,"demographics","gender",0,0,0,0,0,0,"Female",1,5363,0
"494",494,20718,"14:33:59",37993832,28012583,"4.0.10.0",1,1,"demographics","age",0,0,0,0,0,0,"33 ",1,8841,0
"495",495,20718,"14:33:59",37993832,28012583,"4.0.10.0",1,2,"demographics","gender",0,0,0,0,0,0,"female",1,4297,0
"496",496,20718,"14:33:28",796363154,852697087,"4.0.10.0",1,1,"demographics","age",0,0,0,0,0,0,"35",1,4510,0
"497",497,20718,"14:33:28",796363154,852697087,"4.0.10.0",1,2,"demographics","gender",0,0,0,0,0,0,"m",1,2282,0
"498",498,20718,"14:34:15",716419497,715537611,"4.0.10.0",1,1,"demographics","age",0,0,0,0,0,0,"28",1,5155,0
"499",499,20718,"14:34:15",716419497,715537611,"4.0.10.0",1,2,"demographics","gender",0,0,0,0,0,0,"female",1,4286,0
"500",500,20718,"14:32:45",642937999,959977279,"4.0.10.0",1,1,"demographics","age",0,0,0,0,0,0,"26 ",1,3329,0
"501",501,20718,"14:32:45",642937999,959977279,"4.0.10.0",1,2,"demographics","gender",0,0,0,0,0,0,"female",1,2792,0
"502",502,20718,"09:31:50",85149604,909556138,"4.0.10.0",1,1,"demographics","age",0,0,0,0,0,0,"39",1,10213,0
"503",503,20718,"09:31:50",85149604,909556138,"4.0.10.0",1,2,"demographics","gender",0,0,0,0,0,0,"Female",1,5125,0
"504",504,20718,"14:29:52",333784380,270308740,"4.0.10.0",1,1,"demographics","age",0,0,0,0,0,0,"29",1,5362,0
"505",505,20718,"14:29:52",333784380,270308740,"4.0.10.0",1,2,"demographics","gender",0,0,0,0,0,0,"Male",1,3994,0
"506",506,20718,"14:30:57",327182427,957598724,"4.0.10.0",1,1,"demographics","age",0,0,0,0,0,0,"53",1,4901,0
"507",507,20718,"14:30:57",327182427,957598724,"4.0.10.0",1,2,"demographics","gender",0,0,0,0,0,0,"male",1,4675,0
"508",508,20718,"14:30:20",409346768,583883014,"4.0.10.0",1,1,"demographics","age",0,0,0,0,0,0,"32",1,4970,0
"509",509,20718,"14:30:20",409346768,583883014,"4.0.10.0",1,2,"demographics","gender",0,0,0,0,0,0,"male",1,4034,0
"510",510,20718,"14:30:27",170862131,432053156,"4.0.10.0",1,1,"demographics","age",0,0,0,0,0,0,"49",1,9695,0
"511",511,20718,"14:30:27",170862131,432053156,"4.0.10.0",1,2,"demographics","gender",0,0,0,0,0,0,"male",1,5744,0
"512",512,20718,"06:29:30",479136294,242700581,"4.0.10.0",1,1,"demographics","age",0,0,0,0,0,0,"60",1,11458,0
"513",513,20718,"06:29:30",479136294,242700581,"4.0.10.0",1,2,"demographics","gender",0,0,0,0,0,0,"male",1,4450,0
"514",514,20718,"14:29:22",839814902,443788413,"4.0.10.0",1,1,"demographics","age",0,0,0,0,0,0,"28",1,2241,0
"515",515,20718,"14:29:22",839814902,443788413,"4.0.10.0",1,2,"demographics","gender",0,0,0,0,0,0,"Female",1,3189,0
"516",516,20718,"14:26:19",415654391,867948927,"4.0.10.0",1,1,"demographics","age",0,0,0,0,0,0,"48",1,4645,0
"517",517,20718,"14:26:19",415654391,867948927,"4.0.10.0",1,2,"demographics","gender",0,0,0,0,0,0,"female",1,6771,0
"518",518,20718,"14:24:39",492478326,721300289,"4.0.10.0",1,1,"demographics","age",0,0,0,0,0,0,"19",1,17734,0
"519",519,20718,"14:24:39",492478326,721300289,"4.0.10.0",1,2,"demographics","gender",0,0,0,0,0,0,"male",1,4286,0
"520",520,20718,"14:23:11",922399196,726661040,"4.0.10.0",1,1,"demographics","age",0,0,0,0,0,0,"50",1,6511,0
"521",521,20718,"14:23:11",922399196,726661040,"4.0.10.0",1,2,"demographics","gender",0,0,0,0,0,0,"female",1,5890,0
"522",522,20718,"14:22:56",972847665,664316323,"4.0.10.0",1,1,"demographics","age",0,0,0,0,0,0,"32",1,4673,0
"523",523,20718,"14:22:56",972847665,664316323,"4.0.10.0",1,2,"demographics","gender",0,0,0,0,0,0,"FEMALE",1,7696,0
"524",524,20718,"14:22:45",60891294,614502488,"4.0.10.0",1,1,"demographics","age",0,0,0,0,0,0,"42 ",1,5285,0
"525",525,20718,"14:22:45",60891294,614502488,"4.0.10.0",1,2,"demographics","gender",0,0,0,0,0,0,"Female",1,5447,0
"526",526,20718,"14:21:29",164053987,657636043,"4.0.10.0",1,1,"demographics","age",0,0,0,0,0,0,"31",1,4140,0
"527",527,20718,"14:21:29",164053987,657636043,"4.0.10.0",1,2,"demographics","gender",0,0,0,0,0,0,"female",1,5379,0
"528",528,20718,"14:21:07",960992431,761338203,"4.0.10.0",1,1,"demographics","age",0,0,0,0,0,0,"33 ",1,5129,0
"529",529,20718,"14:21:07",960992431,761338203,"4.0.10.0",1,2,"demographics","gender",0,0,0,0,0,0,"female",1,5081,0
"530",530,20718,"14:20:47",73889035,747800991,"4.0.10.0",1,1,"demographics","age",0,0,0,0,0,0,"39",1,3508,0
"531",531,20718,"14:20:47",73889035,747800991,"4.0.10.0",1,2,"demographics","gender",0,0,0,0,0,0,"female",1,3192,0
"532",532,20718,"14:20:53",281793711,150461530,"4.0.10.0",1,1,"demographics","age",0,0,0,0,0,0,"33",1,2066,0
"533",533,20718,"14:20:53",281793711,150461530,"4.0.10.0",1,2,"demographics","gender",0,0,0,0,0,0,"male",1,3341,0
"534",534,20718,"14:09:46",727218630,337995878,"4.0.10.0",1,1,"demographics","age",0,0,0,0,0,0,"28 ",1,3178,0
"535",535,20718,"14:09:46",727218630,337995878,"4.0.10.0",1,2,"demographics","gender",0,0,0,0,0,0,"Female ",1,4288,0
"536",536,20718,"14:17:10",968781842,854086011,"4.0.10.0",1,1,"demographics","age",0,0,0,0,0,0,"29",1,4111,0
"537",537,20718,"14:17:10",968781842,854086011,"4.0.10.0",1,2,"demographics","gender",0,0,0,0,0,0,"female",1,2540,0
"538",538,20718,"09:18:24",994728280,654331958,"4.0.10.0",1,1,"demographics","age",0,0,0,0,0,0,"35",1,4292,0
"539",539,20718,"09:18:24",994728280,654331958,"4.0.10.0",1,2,"demographics","gender",0,0,0,0,0,0,"female",1,4660,0
"540",540,20718,"14:17:17",846396687,218817820,"4.0.10.0",1,1,"demographics","age",0,0,0,0,0,0,"38",1,5454,0
"541",541,20718,"14:17:17",846396687,218817820,"4.0.10.0",1,2,"demographics","gender",0,0,0,0,0,0,"Female",1,6175,0
"542",542,20818,"00:47:13",168215777,91409689,"4.0.10.0",1,1,"demographics","age",0,0,0,0,0,0,"20",1,4818,0
"543",543,20818,"00:47:13",168215777,91409689,"4.0.10.0",1,2,"demographics","gender",0,0,0,0,0,0,"Male",1,4675,0
"544",544,20718,"14:15:10",411159289,410213985,"4.0.10.0",1,1,"demographics","age",0,0,0,0,0,0,"36",1,9104,0
"545",545,20718,"14:15:10",411159289,410213985,"4.0.10.0",1,2,"demographics","gender",0,0,0,0,0,0,"Female",1,5427,0
"546",546,20718,"14:11:27",588596018,234271855,"4.0.10.0",1,1,"demographics","age",0,0,0,0,0,0,"37",1,8006,0
"547",547,20718,"14:11:27",588596018,234271855,"4.0.10.0",1,2,"demographics","gender",0,0,0,0,0,0,"female",1,5475,0
"548",548,20718,"14:12:30",132133703,80168959,"4.0.10.0",1,1,"demographics","age",0,0,0,0,0,0,"43  ",1,6845,0
"549",549,20718,"14:12:30",132133703,80168959,"4.0.10.0",1,2,"demographics","gender",0,0,0,0,0,0,"female",1,3401,0
"550",550,20718,"08:11:16",964675927,147475444,"4.0.10.0",1,1,"demographics","age",0,0,0,0,0,0,"28",1,7121,0
"551",551,20718,"08:11:16",964675927,147475444,"4.0.10.0",1,2,"demographics","gender",0,0,0,0,0,0,"Male",1,5457,0
"552",552,20718,"14:11:06",901661905,749368071,"4.0.10.0",1,1,"demographics","age",0,0,0,0,0,0,"41",1,4132,0
"553",553,20718,"14:11:06",901661905,749368071,"4.0.10.0",1,2,"demographics","gender",0,0,0,0,0,0,"Female",1,5808,0
"554",554,20718,"14:09:55",541156472,281711400,"4.0.10.0",1,1,"demographics","age",0,0,0,0,0,0,"26",1,4477,0
"555",555,20718,"14:09:55",541156472,281711400,"4.0.10.0",1,2,"demographics","gender",0,0,0,0,0,0,"male",1,4258,0
"556",556,20718,"14:09:34",319647032,675058712,"4.0.10.0",1,1,"demographics","age",0,0,0,0,0,0,"54",1,11660,0
"557",557,20718,"14:09:34",319647032,675058712,"4.0.10.0",1,2,"demographics","gender",0,0,0,0,0,0,"female",1,5246,0
"558",558,20718,"14:07:17",646699093,466244185,"4.0.10.0",1,1,"demographics","age",0,0,0,0,0,0,"30",1,4304,0
"559",559,20718,"14:07:17",646699093,466244185,"4.0.10.0",1,2,"demographics","gender",0,0,0,0,0,0,"Female",1,5044,0
"560",560,20718,"14:04:45",823594437,999273421,"4.0.10.0",1,1,"demographics","age",0,0,0,0,0,0,"43",1,6693,0
"561",561,20718,"14:04:45",823594437,999273421,"4.0.10.0",1,2,"demographics","gender",0,0,0,0,0,0,"female",1,6010,0
"562",562,20718,"14:04:06",186392842,27087659,"4.0.10.0",1,1,"demographics","age",0,0,0,0,0,0,"49",1,6000,0
"563",563,20718,"14:04:06",186392842,27087659,"4.0.10.0",1,2,"demographics","gender",0,0,0,0,0,0,"female",1,6628,0
"564",564,20718,"14:00:58",356615677,683057198,"4.0.10.0",1,1,"demographics","age",0,0,0,0,0,0,"38",1,6546,0
"565",565,20718,"14:00:58",356615677,683057198,"4.0.10.0",1,2,"demographics","gender",0,0,0,0,0,0,"female",1,5370,0
"566",566,20718,"13:59:37",132781672,470431742,"4.0.10.0",1,1,"demographics","age",0,0,0,0,0,0,"53",1,6375,0
"567",567,20718,"13:59:37",132781672,470431742,"4.0.10.0",1,2,"demographics","gender",0,0,0,0,0,0,"male",1,5857,0
"568",568,20718,"13:59:13",663236397,792204798,"4.0.10.0",1,1,"demographics","age",0,0,0,0,0,0,"31",1,5533,0
"569",569,20718,"13:59:13",663236397,792204798,"4.0.10.0",1,2,"demographics","gender",0,0,0,0,0,0,"Female",1,15811,0
"570",570,20718,"13:56:07",378102638,514888056,"4.0.10.0",1,1,"demographics","age",0,0,0,0,0,0,"21 ",1,4193,0
"571",571,20718,"13:56:07",378102638,514888056,"4.0.10.0",1,2,"demographics","gender",0,0,0,0,0,0,"F",1,7785,0
"572",572,20718,"06:55:51",374785969,515521577,"4.0.10.0",1,1,"demographics","age",0,0,0,0,0,0,"24",1,2888,0
"573",573,20718,"06:55:51",374785969,515521577,"4.0.10.0",1,2,"demographics","gender",0,0,0,0,0,0,"Female",1,3104,0
"574",574,20718,"13:49:25",75285793,817704898,"4.0.10.0",1,1,"demographics","age",0,0,0,0,0,0,"50",1,4143,0
"575",575,20718,"13:49:25",75285793,817704898,"4.0.10.0",1,2,"demographics","gender",0,0,0,0,0,0,"female",1,5097,0
"576",576,20718,"13:48:43",951732322,260570330,"4.0.10.0",1,1,"demographics","age",0,0,0,0,0,0,"30",1,3157,0
"577",577,20718,"13:48:43",951732322,260570330,"4.0.10.0",1,2,"demographics","gender",0,0,0,0,0,0,"female",1,5058,0
"578",578,20718,"13:47:28",664591579,375081299,"4.0.10.0",1,1,"demographics","age",0,0,0,0,0,0,"61 ",1,4790,0
"579",579,20718,"13:47:28",664591579,375081299,"4.0.10.0",1,2,"demographics","gender",0,0,0,0,0,0,"female",1,4660,0
"580",580,20718,"13:46:53",315489651,334748437,"4.0.10.0",1,1,"demographics","age",0,0,0,0,0,0,"27",1,5353,0
"581",581,20718,"13:46:53",315489651,334748437,"4.0.10.0",1,2,"demographics","gender",0,0,0,0,0,0,"Male",1,7811,0
"582",582,20718,"13:43:48",60463825,395363312,"4.0.10.0",1,1,"demographics","age",0,0,0,0,0,0,"61",1,6165,0
"583",583,20718,"13:43:48",60463825,395363312,"4.0.10.0",1,2,"demographics","gender",0,0,0,0,0,0,"Female",1,5993,0
"584",584,20718,"13:44:48",50852819,599385267,"4.0.10.0",1,1,"demographics","age",0,0,0,0,0,0,"20",1,8525,0
"585",585,20718,"13:44:48",50852819,599385267,"4.0.10.0",1,2,"demographics","gender",0,0,0,0,0,0,"Male",1,4694,0
"586",586,20718,"13:42:14",493016882,962810244,"4.0.10.0",1,1,"demographics","age",0,0,0,0,0,0,"38",1,5238,0
"587",587,20718,"13:42:14",493016882,962810244,"4.0.10.0",1,2,"demographics","gender",0,0,0,0,0,0,"female",1,6671,0
"588",588,20718,"13:41:49",98291046,332786361,"4.0.10.0",1,1,"demographics","age",0,0,0,0,0,0,"51",1,9588,0
"589",589,20718,"13:41:49",98291046,332786361,"4.0.10.0",1,2,"demographics","gender",0,0,0,0,0,0,"female",1,6171,0
"590",590,20718,"13:39:18",976824528,71675015,"4.0.10.0",1,1,"demographics","age",0,0,0,0,0,0,"64",1,6079,0
"591",591,20718,"13:39:18",976824528,71675015,"4.0.10.0",1,2,"demographics","gender",0,0,0,0,0,0,"female",1,9119,0
"592",592,20718,"10:48:59",526842265,857298266,"4.0.10.0",1,1,"demographics","age",0,0,0,0,0,0,"39",1,6686,0
"593",593,20718,"10:48:59",526842265,857298266,"4.0.10.0",1,2,"demographics","gender",0,0,0,0,0,0,"male",1,4459,0
"594",594,20718,"07:31:58",488419885,942657512,"4.0.10.0",1,1,"demographics","age",0,0,0,0,0,0,"22",1,4918,0
"595",595,20718,"07:31:58",488419885,942657512,"4.0.10.0",1,2,"demographics","gender",0,0,0,0,0,0,"Female",1,4706,0
"596",596,20718,"13:31:55",600689214,244572713,"4.0.10.0",1,1,"demographics","age",0,0,0,0,0,0,"26",1,4366,0
"597",597,20718,"13:31:55",600689214,244572713,"4.0.10.0",1,2,"demographics","gender",0,0,0,0,0,0,"female",1,4882,0
"598",598,20718,"13:30:19",833891208,451169438,"4.0.10.0",1,1,"demographics","age",0,0,0,0,0,0,"23",1,3333,0
"599",599,20718,"13:30:19",833891208,451169438,"4.0.10.0",1,2,"demographics","gender",0,0,0,0,0,0,"male",1,3967,0
"600",600,20718,"13:29:01",325507644,348708304,"4.0.10.0",1,1,"demographics","age",0,0,0,0,0,0,"33",1,3930,0
"601",601,20718,"13:29:01",325507644,348708304,"4.0.10.0",1,2,"demographics","gender",0,0,0,0,0,0,"female",1,4318,0
"602",602,20718,"13:22:45",342509487,480358378,"4.0.10.0",1,1,"demographics","age",0,0,0,0,0,0,"51",1,8547,0
"603",603,20718,"13:22:45",342509487,480358378,"4.0.10.0",1,2,"demographics","gender",0,0,0,0,0,0,"female",1,6182,0
"604",604,20718,"13:13:27",764062580,738315478,"4.0.10.0",1,1,"demographics","age",0,0,0,0,0,0,"35",1,5492,0
"605",605,20718,"13:13:27",764062580,738315478,"4.0.10.0",1,2,"demographics","gender",0,0,0,0,0,0,"f",1,3099,0
"606",606,20718,"13:13:32",530836141,900241257,"4.0.10.0",1,1,"demographics","age",0,0,0,0,0,0,"24",1,12189,0
"607",607,20718,"13:13:32",530836141,900241257,"4.0.10.0",1,2,"demographics","gender",0,0,0,0,0,0,"female",1,6957,0
"608",608,20718,"14:12:01",90613696,365107000,"4.0.10.0",1,1,"demographics","age",0,0,0,0,0,0,"27",1,4700,0
"609",609,20718,"14:12:01",90613696,365107000,"4.0.10.0",1,2,"demographics","gender",0,0,0,0,0,0,"male",1,2827,0
"610",610,20718,"13:18:00",5305107,206997557,"4.0.10.0",1,1,"demographics","age",0,0,0,0,0,0,"43",1,2592,0
"611",611,20718,"13:18:00",5305107,206997557,"4.0.10.0",1,2,"demographics","gender",0,0,0,0,0,0,"female",1,3526,0
"612",612,20718,"13:14:46",933809577,716428497,"4.0.10.0",1,1,"demographics","age",0,0,0,0,0,0,"43",1,9566,0
"613",613,20718,"13:14:46",933809577,716428497,"4.0.10.0",1,2,"demographics","gender",0,0,0,0,0,0,"female",1,4164,0
"614",614,20718,"08:07:07",167543659,677718263,"4.0.10.0",1,1,"demographics","age",0,0,0,0,0,0,"52",1,7818,0
"615",615,20718,"08:07:07",167543659,677718263,"4.0.10.0",1,2,"demographics","gender",0,0,0,0,0,0,"male",1,3502,0
"616",616,20718,"09:03:23",82361904,521731217,"4.0.10.0",1,1,"demographics","age",0,0,0,0,0,0,"29",1,5360,0
"617",617,20718,"09:03:23",82361904,521731217,"4.0.10.0",1,2,"demographics","gender",0,0,0,0,0,0,"Male",1,3958,0
"618",618,20718,"12:56:17",200415685,255323643,"4.0.10.0",1,1,"demographics","age",0,0,0,0,0,0,"44",1,6233,0
"619",619,20718,"12:56:17",200415685,255323643,"4.0.10.0",1,2,"demographics","gender",0,0,0,0,0,0,"male",1,6294,0
"620",620,20718,"04:56:00",306354403,76994235,"4.0.10.0",1,1,"demographics","age",0,0,0,0,0,0,"52",1,5309,0
"621",621,20718,"04:56:00",306354403,76994235,"4.0.10.0",1,2,"demographics","gender",0,0,0,0,0,0,"f",1,5933,0
"622",622,20718,"12:55:49",396709789,105966407,"4.0.10.0",1,1,"demographics","age",0,0,0,0,0,0,"22",1,2498,0
"623",623,20718,"12:55:49",396709789,105966407,"4.0.10.0",1,2,"demographics","gender",0,0,0,0,0,0,"male",1,3030,0
"624",624,20718,"07:49:52",814170139,688207919,"4.0.10.0",1,1,"demographics","age",0,0,0,0,0,0,"53",1,3226,0
"625",625,20718,"07:49:52",814170139,688207919,"4.0.10.0",1,2,"demographics","gender",0,0,0,0,0,0,"female",1,7128,0
"626",626,20718,"12:45:30",482620871,582207697,"4.0.10.0",1,1,"demographics","age",0,0,0,0,0,0,"30",1,7286,0
"627",627,20718,"12:45:30",482620871,582207697,"4.0.10.0",1,2,"demographics","gender",0,0,0,0,0,0,"female",1,2976,0
"628",628,20718,"23:47:23",356044560,319349222,"4.0.10.0",1,1,"demographics","age",0,0,0,0,0,0,"19",1,5775,0
"629",629,20718,"23:47:23",356044560,319349222,"4.0.10.0",1,2,"demographics","gender",0,0,0,0,0,0,"Male",1,4002,0
"630",630,20718,"07:41:20",135531554,76771109,"4.0.10.0",1,1,"demographics","age",0,0,0,0,0,0,"22",1,4044,0
"631",631,20718,"07:41:20",135531554,76771109,"4.0.10.0",1,2,"demographics","gender",0,0,0,0,0,0,"Male",1,5144,0
"632",632,20718,"12:33:54",631468891,408203981,"4.0.10.0",1,1,"demographics","age",0,0,0,0,0,0,"35",1,3742,0
"633",633,20718,"12:33:54",631468891,408203981,"4.0.10.0",1,2,"demographics","gender",0,0,0,0,0,0,"female",1,3952,0
"634",634,20718,"12:29:58",530489299,971096856,"4.0.10.0",1,1,"demographics","age",0,0,0,0,0,0,"43",1,9581,0
"635",635,20718,"12:29:58",530489299,971096856,"4.0.10.0",1,2,"demographics","gender",0,0,0,0,0,0,"Female",1,4726,0
"636",636,20718,"13:10:59",778615131,333536239,"4.0.10.0",1,1,"demographics","age",0,0,0,0,0,0,"1",1,1723,0
"637",637,20718,"13:10:59",778615131,333536239,"4.0.10.0",1,2,"demographics","gender",0,0,0,0,0,0,"1",1,777,0
