"participant","block_n","trial_n","task","item","response","accuracy","rt","complete"
292,"1","1","debriefing","debriefing","57","0","3294",TRUE
293,"1","1","debriefing","debriefing","57","0","1360",TRUE
291,"1","1","debriefing","debriefing","57","0","19265",TRUE
290,"1","1","debriefing","debriefing","57","0","4561",TRUE
282,"1","1","debriefing","debriefing","57","0","29557",TRUE
288,"1","1","debriefing","debriefing","57","0","42810",TRUE
287,"1","1","debriefing","debriefing","57","0","4692",TRUE
283,"1","1","debriefing","debriefing","57","0","24474",TRUE
281,"1","1","debriefing","debriefing","57","0","12613",TRUE
284,"1","1","debriefing","debriefing","57","0","20813",TRUE
286,"1","1","debriefing","debriefing","57","0","29006",TRUE
279,"1","1","debriefing","debriefing","57","0","40093",TRUE
278,"1","1","debriefing","debriefing","57","0","13573",TRUE
272,"1","1","debriefing","debriefing","57","0","6498",TRUE
276,"1","1","debriefing","debriefing","57","0","15280",TRUE
275,"1","1","debriefing","debriefing","57","0","31723",TRUE
280,"1","1","debriefing","debriefing","57","0","1383",TRUE
270,"1","1","debriefing","debriefing","57","0","14919",TRUE
271,"1","1","debriefing","debriefing","57","0","7135",TRUE
273,"1","1","debriefing","debriefing","57","0","23221",TRUE
274,"1","1","debriefing","debriefing","57","0","1759",TRUE
268,"1","1","debriefing","debriefing","57","0","5229",TRUE
269,"1","1","debriefing","debriefing","57","0","2366",TRUE
266,"1","1","debriefing","debriefing","57","0","25827",TRUE
264,"1","1","debriefing","debriefing","57","0","57248",TRUE
259,"1","1","debriefing","debriefing","57","0","11853",TRUE
260,"1","1","debriefing","debriefing","57","0","7450",TRUE
249,"1","1","debriefing","debriefing","57","0","14394",TRUE
256,"1","1","debriefing","debriefing","57","0","5144",TRUE
251,"1","1","debriefing","debriefing","57","0","8926",TRUE
250,"1","1","debriefing","debriefing","57","0","2710",TRUE
252,"1","1","debriefing","debriefing","57","0","3014",TRUE
244,"1","1","debriefing","debriefing","57","0","6456",TRUE
238,"1","1","debriefing","debriefing","57","0","20982",TRUE
248,"1","1","debriefing","debriefing","57","0","19555",TRUE
247,"1","1","debriefing","debriefing","57","0","5356",TRUE
245,"1","1","debriefing","debriefing","57","0","23374",TRUE
243,"1","1","debriefing","debriefing","57","0","20791",TRUE
242,"1","1","debriefing","debriefing","57","0","1499",TRUE
240,"1","1","debriefing","debriefing","57","0","25608",TRUE
250,"1","1","debriefing","debriefing","Ctrl+'Q'","1","0",TRUE
241,"1","1","debriefing","debriefing","57","0","2876",TRUE
226,"1","1","debriefing","debriefing","57","0","30129",TRUE
247,"1","1","debriefing","debriefing","Ctrl+'Q'","1","621",TRUE
230,"1","1","debriefing","debriefing","57","0","20107",TRUE
237,"1","1","debriefing","debriefing","57","0","5112",TRUE
236,"1","1","debriefing","debriefing","57","0","18927",TRUE
228,"1","1","debriefing","debriefing","57","0","28007",TRUE
217,"1","1","debriefing","debriefing","57","0","23458",TRUE
232,"1","1","debriefing","debriefing","57","0","5062",TRUE
225,"1","1","debriefing","debriefing","57","0","17506",TRUE
222,"1","1","debriefing","debriefing","57","0","15868",TRUE
221,"1","1","debriefing","debriefing","57","0","10112",TRUE
220,"1","1","debriefing","debriefing","57","0","7064",TRUE
216,"1","1","debriefing","debriefing","57","0","5051",TRUE
218,"1","1","debriefing","debriefing","57","0","13765",TRUE
214,"1","1","debriefing","debriefing","57","0","15773",TRUE
212,"1","1","debriefing","debriefing","57","0","22854",TRUE
213,"1","1","debriefing","debriefing","57","0","6734",TRUE
211,"1","1","debriefing","debriefing","57","0","1616",TRUE
207,"1","1","debriefing","debriefing","57","0","13131",TRUE
206,"1","1","debriefing","debriefing","57","0","15941",TRUE
205,"1","1","debriefing","debriefing","57","0","16581",TRUE
209,"1","1","debriefing","debriefing","57","0","14556",TRUE
200,"1","1","debriefing","debriefing","57","0","28756",TRUE
194,"1","1","debriefing","debriefing","57","0","1981",TRUE
202,"1","1","debriefing","debriefing","57","0","16883",TRUE
190,"1","1","debriefing","debriefing","57","0","23156",TRUE
197,"1","1","debriefing","debriefing","57","0","8705",TRUE
192,"1","1","debriefing","debriefing","57","0","14809",TRUE
174,"1","1","debriefing","debriefing","57","0","9121",TRUE
184,"1","1","debriefing","debriefing","57","0","26874",TRUE
178,"1","1","debriefing","debriefing","57","0","26883",TRUE
172,"1","1","debriefing","debriefing","57","0","26312",TRUE
182,"1","1","debriefing","debriefing","57","0","25393",TRUE
179,"1","1","debriefing","debriefing","57","0","9647",TRUE
163,"1","1","debriefing","debriefing","57","0","18671",TRUE
166,"1","1","debriefing","debriefing","57","0","12641",TRUE
162,"1","1","debriefing","debriefing","57","0","13477",TRUE
161,"1","1","debriefing","debriefing","57","0","6051",TRUE
165,"1","1","debriefing","debriefing","57","0","7760",TRUE
155,"1","1","debriefing","debriefing","57","0","15546",TRUE
156,"1","1","debriefing","debriefing","57","0","17890",TRUE
159,"1","1","debriefing","debriefing","57","0","2727",TRUE
158,"1","1","debriefing","debriefing","57","0","6730",TRUE
107,"1","1","debriefing","debriefing","57","0","5627",TRUE
151,"1","1","debriefing","debriefing","57","0","2108",TRUE
145,"1","1","debriefing","debriefing","57","0","21407",TRUE
117,"1","1","debriefing","debriefing","57","0","30455",TRUE
143,"1","1","debriefing","debriefing","57","0","19160",TRUE
140,"1","1","debriefing","debriefing","57","0","4158",TRUE
147,"1","1","debriefing","debriefing","57","0","6034",TRUE
149,"1","1","debriefing","debriefing","57","0","13154",TRUE
163,"1","1","debriefing","debriefing","Ctrl+'Q'","1","11",TRUE
146,"1","1","debriefing","debriefing","57","0","10854",TRUE
150,"1","1","debriefing","debriefing","57","0","8229",TRUE
142,"1","1","debriefing","debriefing","57","0","12682",TRUE
134,"1","1","debriefing","debriefing","57","0","26112",TRUE
129,"1","1","debriefing","debriefing","57","0","22893",TRUE
121,"1","1","debriefing","debriefing","57","0","21394",TRUE
120,"1","1","debriefing","debriefing","57","0","13253",TRUE
131,"1","1","debriefing","debriefing","57","0","3743",TRUE
137,"1","1","debriefing","debriefing","57","0","7860",TRUE
130,"1","1","debriefing","debriefing","57","0","14979",TRUE
112,"1","1","debriefing","debriefing","57","0","90259",TRUE
106,"1","1","debriefing","debriefing","57","0","16163",TRUE
132,"1","1","debriefing","debriefing","57","0","8881",TRUE
125,"1","1","debriefing","debriefing","57","0","15960",TRUE
110,"1","1","debriefing","debriefing","57","0","9177",TRUE
115,"1","1","debriefing","debriefing","57","0","20335",TRUE
116,"1","1","debriefing","debriefing","57","0","28680",TRUE
128,"1","1","debriefing","debriefing","57","0","4334",TRUE
118,"1","1","debriefing","debriefing","57","0","17141",TRUE
119,"1","1","debriefing","debriefing","57","0","5980",TRUE
114,"1","1","debriefing","debriefing","57","0","15451",TRUE
113,"1","1","debriefing","debriefing","57","0","15005",TRUE
109,"1","1","debriefing","debriefing","57","0","1561",TRUE
104,"1","1","debriefing","debriefing","57","0","15809",TRUE
90,"1","1","debriefing","debriefing","57","0","37655",TRUE
112,"1","1","debriefing","debriefing","Ctrl+'Q'","1","0",TRUE
89,"1","1","debriefing","debriefing","57","0","30068",TRUE
88,"1","1","debriefing","debriefing","57","0","15669",TRUE
87,"1","1","debriefing","debriefing","57","0","22067",TRUE
93,"1","1","debriefing","debriefing","57","0","4223",TRUE
92,"1","1","debriefing","debriefing","57","0","19846",TRUE
80,"1","1","debriefing","debriefing","57","0","34944",TRUE
86,"1","1","debriefing","debriefing","57","0","12332",TRUE
85,"1","1","debriefing","debriefing","57","0","1931",TRUE
84,"1","1","debriefing","debriefing","57","0","10722",TRUE
83,"1","1","debriefing","debriefing","57","0","3142",TRUE
76,"1","1","debriefing","debriefing","57","0","16834",TRUE
70,"1","1","debriefing","debriefing","57","0","60798",TRUE
82,"1","1","debriefing","debriefing","57","0","3937",TRUE
68,"1","1","debriefing","debriefing","57","0","50909",TRUE
69,"1","1","debriefing","debriefing","57","0","8655",TRUE
78,"1","1","debriefing","debriefing","57","0","3014",TRUE
61,"1","1","debriefing","debriefing","57","0","1715",TRUE
58,"1","1","debriefing","debriefing","57","0","29517",TRUE
59,"1","1","debriefing","debriefing","57","0","41488",TRUE
55,"1","1","debriefing","debriefing","57","0","4542",TRUE
56,"1","1","debriefing","debriefing","57","0","21076",TRUE
46,"1","1","debriefing","debriefing","57","0","23448",TRUE
47,"1","1","debriefing","debriefing","57","0","18346",TRUE
38,"1","1","debriefing","debriefing","57","0","8469",TRUE
37,"1","1","debriefing","debriefing","57","0","6871",TRUE
36,"1","1","debriefing","debriefing","57","0","10289",TRUE
34,"1","1","debriefing","debriefing","57","0","17307",TRUE
24,"1","1","debriefing","debriefing","57","0","7590",TRUE
29,"1","1","debriefing","debriefing","57","0","16947",TRUE
27,"1","1","debriefing","debriefing","57","0","5525",TRUE
18,"1","1","debriefing","debriefing","57","0","32719",TRUE
14,"1","1","debriefing","debriefing","57","0","18802",TRUE
12,"1","1","debriefing","debriefing","57","0","6741",TRUE
10,"1","1","debriefing","debriefing","57","0","28900",TRUE
8,"1","1","debriefing","debriefing","57","0","7825",TRUE
6,"1","1","debriefing","debriefing","57","0","48644",TRUE
292,"1","1","demographics","age","27","1","3076",TRUE
292,"1","2","demographics","gender","female","1","2750",TRUE
293,"1","1","demographics","age","31","1","3986",TRUE
293,"1","2","demographics","gender","male","1","3571",TRUE
291,"1","1","demographics","age","33","1","3826",TRUE
291,"1","2","demographics","gender","male","1","3465",TRUE
290,"1","1","demographics","age","43","1","3070",TRUE
290,"1","2","demographics","gender","female","1","4771",TRUE
282,"1","1","demographics","age","22","1","3344",TRUE
282,"1","2","demographics","gender","Male","1","3560",TRUE
288,"1","1","demographics","age","18","1","5648",TRUE
288,"1","2","demographics","gender","Male","1","3617",TRUE
287,"1","1","demographics","age","40","1","4098",TRUE
287,"1","2","demographics","gender","male","1","4107",TRUE
283,"1","1","demographics","age","42","1","4347",TRUE
283,"1","2","demographics","gender","male","1","4049",TRUE
286,"1","1","demographics","age","18","1","3773",TRUE
286,"1","2","demographics","gender","Male","1","4355",TRUE
284,"1","1","demographics","age","21","1","8631",TRUE
284,"1","2","demographics","gender","Male","1","4017",TRUE
278,"1","1","demographics","age","28","1","2974",TRUE
278,"1","2","demographics","gender","male","1","2959",TRUE
281,"1","1","demographics","age","41","1","4271",TRUE
281,"1","2","demographics","gender","Male","1","10824",TRUE
279,"1","1","demographics","age","28","1","10784",TRUE
279,"1","2","demographics","gender","female","1","5375",TRUE
280,"1","1","demographics","age","46","1","7708",TRUE
280,"1","2","demographics","gender","male","1","4551",TRUE
276,"1","1","demographics","age","35","1","6804",TRUE
276,"1","2","demographics","gender","male","1","6855",TRUE
275,"1","1","demographics","age","18","1","5838",TRUE
275,"1","2","demographics","gender","Male","1","4049",TRUE
270,"1","1","demographics","age","18","1","4101",TRUE
270,"1","2","demographics","gender","F","1","3620",TRUE
272,"1","1","demographics","age","37","1","3599",TRUE
272,"1","2","demographics","gender","male","1","5193",TRUE
274,"1","1","demographics","age","23","1","6524",TRUE
274,"1","2","demographics","gender","male","1","3188",TRUE
273,"1","1","demographics","age","24","1","6016",TRUE
273,"1","2","demographics","gender","Female","1","2415",TRUE
271,"1","1","demographics","age","24","1","4605",TRUE
271,"1","2","demographics","gender","24","1","2529",TRUE
268,"1","1","demographics","age","56","1","10379",TRUE
268,"1","2","demographics","gender","male","1","5004",TRUE
269,"1","1","demographics","age","33","1","3468",TRUE
269,"1","2","demographics","gender","m","1","1752",TRUE
266,"1","1","demographics","age","47","1","4943",TRUE
266,"1","2","demographics","gender","male","1","6512",TRUE
264,"1","1","demographics","age","25 ","1","3419",TRUE
264,"1","2","demographics","gender","male","1","3157",TRUE
260,"1","1","demographics","age","25","1","2917",TRUE
260,"1","2","demographics","gender","Male","1","2666",TRUE
259,"1","1","demographics","age","30","1","5565",TRUE
259,"1","2","demographics","gender","Female","1","3150",TRUE
256,"1","1","demographics","age","21 ","1","4366",TRUE
256,"1","2","demographics","gender","Female","1","4506",TRUE
251,"1","1","demographics","age","27","1","4936",TRUE
251,"1","2","demographics","gender","Male","1","3615",TRUE
250,"1","1","demographics","age","50","1","4235",TRUE
250,"1","2","demographics","gender","female","1","4247",TRUE
252,"1","1","demographics","age","29","1","2884",TRUE
252,"1","2","demographics","gender","Male","1","3385",TRUE
252,"1","1","demographics","age","29","1","6466",TRUE
252,"1","2","demographics","gender","Male","1","4233",TRUE
247,"1","1","demographics","age","26","1","1990",TRUE
247,"1","2","demographics","gender","male","1","3348",TRUE
250,"1","1","demographics","age","50","1","5388",TRUE
250,"1","2","demographics","gender","female","1","5634",TRUE
249,"1","1","demographics","age","33","1","5697",TRUE
249,"1","2","demographics","gender","f","1","6161",TRUE
247,"1","1","demographics","age","26","1","2855",TRUE
247,"1","2","demographics","gender","male","1","3729",TRUE
248,"1","1","demographics","age","43","1","10327",TRUE
248,"1","2","demographics","gender","Female","1","6763",TRUE
244,"1","1","demographics","age","33","1","4407",TRUE
244,"1","2","demographics","gender","male","1","7747",TRUE
245,"1","1","demographics","age","34","1","3927",TRUE
245,"1","2","demographics","gender","female","1","4163",TRUE
242,"1","1","demographics","age","21","1","4938",TRUE
242,"1","2","demographics","gender","Male","1","1678",TRUE
243,"1","1","demographics","age","30 ","1","3473",TRUE
243,"1","2","demographics","gender","male","1","5028",TRUE
238,"1","1","demographics","age","33","1","3130",TRUE
238,"1","2","demographics","gender","Male","1","6040",TRUE
241,"1","1","demographics","age","34","1","2432",TRUE
241,"1","2","demographics","gender","male","1","2648",TRUE
240,"1","1","demographics","age","18","1","3829",TRUE
240,"1","2","demographics","gender","female","1","5442",TRUE
237,"1","1","demographics","age","46","1","5524",TRUE
237,"1","2","demographics","gender","Female","1","4101",TRUE
226,"1","1","demographics","age","44","1","14619",TRUE
226,"1","2","demographics","gender","male","1","31178",TRUE
236,"1","1","demographics","age","25","1","9424",TRUE
236,"1","2","demographics","gender","Female","1","7893",TRUE
237,"1","1","demographics","age","46","1","12468",TRUE
237,"1","2","demographics","gender","Female","1","4083",TRUE
230,"1","1","demographics","age","18","1","4606",TRUE
230,"1","2","demographics","gender","Male","1","7727",TRUE
232,"1","1","demographics","age","22","1","5697",TRUE
232,"1","2","demographics","gender","male","1","5860",TRUE
228,"1","1","demographics","age","34","1","6199",TRUE
228,"1","2","demographics","gender","male","1","3079",TRUE
225,"1","1","demographics","age","26","1","3712",TRUE
225,"1","2","demographics","gender","female","1","4792",TRUE
221,"1","1","demographics","age","20","1","3452",TRUE
221,"1","2","demographics","gender","female","1","3116",TRUE
222,"1","1","demographics","age","25","1","4422",TRUE
222,"1","2","demographics","gender","Male","1","5298",TRUE
220,"1","1","demographics","age","32","1","3816",TRUE
220,"1","2","demographics","gender","Male","1","4837",TRUE
218,"1","1","demographics","age","30","1","5662",TRUE
218,"1","2","demographics","gender","Female","1","3957",TRUE
217,"1","1","demographics","age","44","1","3135",TRUE
217,"1","2","demographics","gender","Male","1","5668",TRUE
216,"1","1","demographics","age","33","1","2577",TRUE
216,"1","2","demographics","gender","33","1","15614",TRUE
214,"1","1","demographics","age","22","1","5382",TRUE
214,"1","2","demographics","gender","Male","1","11148",TRUE
213,"1","1","demographics","age","23","1","7164",TRUE
213,"1","2","demographics","gender","Female","1","3875",TRUE
212,"1","1","demographics","age","25","1","6558",TRUE
212,"1","2","demographics","gender","Female","1","3478",TRUE
211,"1","1","demographics","age","18","1","2538",TRUE
211,"1","2","demographics","gender","male","1","2951",TRUE
207,"1","1","demographics","age","36","1","4703",TRUE
207,"1","2","demographics","gender","Male","1","2892",TRUE
206,"1","1","demographics","age","36","1","5494",TRUE
206,"1","2","demographics","gender","Male","1","4427",TRUE
205,"1","1","demographics","age","33","1","3782",TRUE
205,"1","2","demographics","gender","Male","1","3294",TRUE
209,"1","1","demographics","age","34","1","2629",TRUE
209,"1","2","demographics","gender","male","1","2533",TRUE
202,"1","1","demographics","age","40","1","4065",TRUE
202,"1","2","demographics","gender","Male","1","5913",TRUE
194,"1","1","demographics","age","22","1","23733",TRUE
194,"1","2","demographics","gender","male","1","4112",TRUE
200,"1","1","demographics","age","18","1","6857",TRUE
200,"1","2","demographics","gender","Female","1","5303",TRUE
197,"1","1","demographics","age","20","1","8117",TRUE
197,"1","2","demographics","gender","Male","1","3413",TRUE
190,"1","1","demographics","age","32","1","3098",TRUE
190,"1","2","demographics","gender","Female","1","3516",TRUE
184,"1","1","demographics","age","18","1","5211",TRUE
184,"1","2","demographics","gender","Male","1","6107",TRUE
192,"1","1","demographics","age","18 ","1","5730",TRUE
192,"1","2","demographics","gender","nonbinary","1","17796",TRUE
182,"1","1","demographics","age","37","1","3682",TRUE
182,"1","2","demographics","gender","female","1","7928",TRUE
178,"1","1","demographics","age","44","1","6674",TRUE
178,"1","2","demographics","gender","Male","1","4405",TRUE
179,"1","1","demographics","age","28","1","4375",TRUE
179,"1","2","demographics","gender","female","1","3971",TRUE
172,"1","1","demographics","age","29","1","4362",TRUE
172,"1","2","demographics","gender","Female","1","5277",TRUE
174,"1","1","demographics","age","57","1","8904",TRUE
174,"1","2","demographics","gender","male","1","10993",TRUE
163,"1","1","demographics","age","20","1","4209",TRUE
163,"1","2","demographics","gender","Female","1","3151",TRUE
166,"1","1","demographics","age","30","1","4341",TRUE
166,"1","2","demographics","gender","male","1","4323",TRUE
165,"1","1","demographics","age","18","1","5253",TRUE
165,"1","2","demographics","gender","Male","1","4584",TRUE
163,"1","1","demographics","age","20","1","3392",TRUE
163,"1","2","demographics","gender","Female","1","4155",TRUE
162,"1","1","demographics","age","44","1","4443",TRUE
162,"1","2","demographics","gender","Male","1","5655",TRUE
161,"1","1","demographics","age","19","1","7379",TRUE
161,"1","2","demographics","gender","Male","1","3471",TRUE
159,"1","1","demographics","age","30","1","5052",TRUE
159,"1","2","demographics","gender","female","1","2504",TRUE
156,"1","1","demographics","age","22","1","7060",TRUE
156,"1","2","demographics","gender","Male","1","4164",TRUE
155,"1","1","demographics","age","52","1","5230",TRUE
155,"1","2","demographics","gender","female","1","6804",TRUE
158,"1","1","demographics","age","18","1","9655",TRUE
158,"1","2","demographics","gender","male","1","3434",TRUE
151,"1","1","demographics","age","46","1","4981",TRUE
151,"1","2","demographics","gender","male","1","3417",TRUE
140,"1","1","demographics","age","57","1","3803",TRUE
140,"1","2","demographics","gender","male","1","5632",TRUE
150,"1","1","demographics","age","54","1","5486",TRUE
150,"1","2","demographics","gender","Male","1","4537",TRUE
145,"1","1","demographics","age","36","1","15436",TRUE
145,"1","2","demographics","gender","Male","1","3624",TRUE
107,"1","1","demographics","age","27 ","1","15517",TRUE
107,"1","2","demographics","gender","male","1","12424",TRUE
149,"1","1","demographics","age","18","1","3840",TRUE
149,"1","2","demographics","gender","male","1","5514",TRUE
146,"1","1","demographics","age","19","1","6353",TRUE
146,"1","2","demographics","gender","Male","1","3568",TRUE
142,"1","1","demographics","age","32","1","3073",TRUE
142,"1","2","demographics","gender","Male","1","2873",TRUE
147,"1","1","demographics","age","21","1","2272",TRUE
147,"1","2","demographics","gender","male","1","2970",TRUE
143,"1","1","demographics","age","63","1","4405",TRUE
143,"1","2","demographics","gender","f","1","3615",TRUE
117,"1","1","demographics","age","52","1","9163",TRUE
117,"1","2","demographics","gender","male","1","8720",TRUE
137,"1","1","demographics","age","25","1","4641",TRUE
137,"1","2","demographics","gender","female","1","3401",TRUE
134,"1","1","demographics","age","28","1","3262",TRUE
134,"1","2","demographics","gender","Male","1","5732",TRUE
121,"1","1","demographics","age","63","1","5440",TRUE
121,"1","2","demographics","gender","Male","1","6974",TRUE
132,"1","1","demographics","age","48","1","2962",TRUE
132,"1","2","demographics","gender","male","1","3819",TRUE
131,"1","1","demographics","age","53","1","4739",TRUE
131,"1","2","demographics","gender","male","1","3500",TRUE
129,"1","1","demographics","age","52","1","7379",TRUE
129,"1","2","demographics","gender","male","1","5568",TRUE
130,"1","1","demographics","age","23","1","1908",TRUE
130,"1","2","demographics","gender","Male","1","3296",TRUE
106,"1","1","demographics","age","55","1","3406",TRUE
106,"1","2","demographics","gender","female","1","9414",TRUE
128,"1","1","demographics","age","28","1","2525",TRUE
128,"1","2","demographics","gender","male","1","4048",TRUE
125,"1","1","demographics","age","37","1","8213",TRUE
125,"1","2","demographics","gender","male","1","3080",TRUE
120,"1","1","demographics","age","28 ","1","12071",TRUE
120,"1","2","demographics","gender","Male","1","5109",TRUE
112,"1","1","demographics","age","35","1","3511",TRUE
112,"1","2","demographics","gender","Male","1","4043",TRUE
118,"1","1","demographics","age","20","1","4968",TRUE
118,"1","2","demographics","gender","Male","1","3135",TRUE
116,"1","1","demographics","age","25","1","6185",TRUE
116,"1","2","demographics","gender","Male","1","8904",TRUE
112,"1","1","demographics","age","35","1","4453",TRUE
112,"1","2","demographics","gender","Male","1","4601",TRUE
115,"1","1","demographics","age","18","1","3682",TRUE
115,"1","2","demographics","gender","Female","1","4825",TRUE
119,"1","1","demographics","age","30","1","3015",TRUE
119,"1","2","demographics","gender","Male","1","4424",TRUE
114,"1","1","demographics","age","25","1","3436",TRUE
114,"1","2","demographics","gender","male","1","3686",TRUE
113,"1","1","demographics","age","21","1","5238",TRUE
113,"1","2","demographics","gender","female","1","4255",TRUE
110,"1","1","demographics","age","18","1","14460",TRUE
110,"1","2","demographics","gender","Female","1","3119",TRUE
109,"1","1","demographics","age","51","1","3435",TRUE
109,"1","2","demographics","gender","female","1","6053",TRUE
104,"1","1","demographics","age","37","1","3322",TRUE
104,"1","2","demographics","gender","Male","1","6523",TRUE
90,"1","1","demographics","age","50","1","6841",TRUE
90,"1","2","demographics","gender","male","1","5960",TRUE
89,"1","1","demographics","age","22","1","4174",TRUE
89,"1","2","demographics","gender","female","1","4976",TRUE
93,"1","1","demographics","age","32","1","2681",TRUE
93,"1","2","demographics","gender","male","1","3452",TRUE
92,"1","1","demographics","age","34","1","8095",TRUE
92,"1","2","demographics","gender","male","1","3627",TRUE
88,"1","1","demographics","age","18","1","4554",TRUE
88,"1","2","demographics","gender","Female","1","3267",TRUE
87,"1","1","demographics","age","27","1","6863",TRUE
87,"1","2","demographics","gender","Male","1","3405",TRUE
86,"1","1","demographics","age","30","1","2701",TRUE
86,"1","2","demographics","gender","Male","1","40956",TRUE
85,"1","1","demographics","age","30 ","1","5478",TRUE
85,"1","2","demographics","gender","female","1","8363",TRUE
80,"1","1","demographics","age","52","1","7768",TRUE
80,"1","2","demographics","gender","male","1","5795",TRUE
84,"1","1","demographics","age","20","1","4216",TRUE
84,"1","2","demographics","gender","Male","1","4327",TRUE
83,"1","1","demographics","age","40","1","5078",TRUE
83,"1","2","demographics","gender","female","1","7158",TRUE
82,"1","1","demographics","age","34","1","3759",TRUE
82,"1","2","demographics","gender","Male","1","3094",TRUE
76,"1","1","demographics","age","43","1","4937",TRUE
76,"1","2","demographics","gender","Male","1","3684",TRUE
78,"1","1","demographics","age","26","1","2967",TRUE
78,"1","2","demographics","gender","male","1","3075",TRUE
61,"1","1","demographics","age","36","1","4234",TRUE
61,"1","2","demographics","gender","female","1","3739",TRUE
70,"1","1","demographics","age","37","1","5051",TRUE
70,"1","2","demographics","gender","Male","1","3386",TRUE
68,"1","1","demographics","age","48","1","4210",TRUE
68,"1","2","demographics","gender","female","1","10980",TRUE
69,"1","1","demographics","age","37","1","9175",TRUE
69,"1","2","demographics","gender","Male","1","7305",TRUE
58,"1","1","demographics","age","27","1","4336",TRUE
58,"1","2","demographics","gender","Feminine","1","11192",TRUE
59,"1","1","demographics","age","32","1","5184",TRUE
59,"1","2","demographics","gender","Male","1","3302",TRUE
56,"1","1","demographics","age","36","1","7093",TRUE
56,"1","2","demographics","gender","Male","1","3358",TRUE
55,"1","1","demographics","age","33","1","5603",TRUE
55,"1","2","demographics","gender","F","1","2140",TRUE
46,"1","1","demographics","age","31","1","4459",TRUE
46,"1","2","demographics","gender","Male","1","3789",TRUE
47,"1","1","demographics","age","39","1","8622",TRUE
47,"1","2","demographics","gender","Male","1","4100",TRUE
38,"1","1","demographics","age","36","1","11283",TRUE
38,"1","2","demographics","gender","M","1","3734",TRUE
37,"1","1","demographics","age","18 ","1","4544",TRUE
37,"1","2","demographics","gender","Female","1","3790",TRUE
36,"1","1","demographics","age","28","1","7235",TRUE
36,"1","2","demographics","gender","female","1","3369",TRUE
34,"1","1","demographics","age","30","1","4993",TRUE
34,"1","2","demographics","gender","Female","1","3481",TRUE
24,"1","1","demographics","age","33","1","5641",TRUE
24,"1","2","demographics","gender","Female","1","4577",TRUE
29,"1","1","demographics","age","40","1","9152",TRUE
29,"1","2","demographics","gender","female","1","6635",TRUE
27,"1","1","demographics","age","23","1","4069",TRUE
27,"1","2","demographics","gender","Male","1","3567",TRUE
18,"1","1","demographics","age","30","1","6460",TRUE
18,"1","2","demographics","gender","male","1","4213",TRUE
14,"1","1","demographics","age","29","1","3604",TRUE
14,"1","2","demographics","gender","female","1","4263",TRUE
12,"1","1","demographics","age","24","1","2690",TRUE
12,"1","2","demographics","gender","male","1","4355",TRUE
10,"1","1","demographics","age","18","1","5749",TRUE
10,"1","2","demographics","gender","Male","1","4426",TRUE
8,"1","1","demographics","age","51","1","9456",TRUE
8,"1","2","demographics","gender","Male","1","4539",TRUE
6,"1","1","demographics","age","39","1","7493",TRUE
6,"1","2","demographics","gender","Male","1","7024",TRUE
292,"1","2","targetincompatiblepractice","targetAright","23","1","2856",TRUE
292,"1","3","targetincompatiblepractice","targetAright","23","1","735",TRUE
292,"1","4","targetincompatiblepractice","targetBleft","18","1","770",TRUE
292,"1","5","targetincompatiblepractice","targetAright","23","1","696",TRUE
292,"1","6","targetincompatiblepractice","targetAright","23","1","811",TRUE
292,"1","7","targetincompatiblepractice","targetAright","23","1","702",TRUE
292,"1","8","targetincompatiblepractice","targetBleft","18","1","707",TRUE
292,"1","9","targetincompatiblepractice","targetBleft","18","1","937",TRUE
292,"1","10","targetincompatiblepractice","targetBleft","18","1","716",TRUE
292,"1","11","targetincompatiblepractice","targetAright","23","1","722",TRUE
292,"1","12","targetincompatiblepractice","targetBleft","18","0","1903",TRUE
292,"1","13","targetincompatiblepractice","targetBleft","18","1","805",TRUE
292,"1","14","targetincompatiblepractice","targetAright","23","1","654",TRUE
292,"1","15","targetincompatiblepractice","targetBleft","18","1","750",TRUE
292,"1","16","targetincompatiblepractice","targetAright","23","1","655",TRUE
292,"1","17","targetincompatiblepractice","targetAright","23","1","792",TRUE
292,"1","18","targetincompatiblepractice","targetBleft","18","1","589",TRUE
292,"1","19","targetincompatiblepractice","targetAright","23","1","669",TRUE
292,"1","20","targetincompatiblepractice","targetBleft","18","1","601",TRUE
292,"1","21","targetincompatiblepractice","targetBleft","18","1","725",TRUE
292,"2","2","attributepractice","attributeA","18","1","1193",TRUE
292,"2","3","attributepractice","attributeA","18","1","538",TRUE
292,"2","4","attributepractice","attributeB","23","1","578",TRUE
292,"2","5","attributepractice","attributeB","23","1","464",TRUE
292,"2","6","attributepractice","attributeB","23","1","459",TRUE
292,"2","7","attributepractice","attributeA","18","1","557",TRUE
292,"2","8","attributepractice","attributeA","18","1","447",TRUE
292,"2","9","attributepractice","attributeB","23","1","504",TRUE
292,"2","10","attributepractice","attributeB","23","1","557",TRUE
292,"2","11","attributepractice","attributeA","18","1","490",TRUE
292,"2","12","attributepractice","attributeB","23","1","498",TRUE
292,"2","13","attributepractice","attributeA","18","1","474",TRUE
292,"2","14","attributepractice","attributeB","23","1","549",TRUE
292,"2","15","attributepractice","attributeB","23","1","503",TRUE
292,"2","16","attributepractice","attributeB","23","1","514",TRUE
292,"2","17","attributepractice","attributeA","18","1","570",TRUE
292,"2","18","attributepractice","attributeA","18","1","469",TRUE
292,"2","19","attributepractice","attributeA","18","1","462",TRUE
292,"2","20","attributepractice","attributeB","23","1","477",TRUE
292,"2","21","attributepractice","attributeA","18","1","526",TRUE
292,"3","2","incompatibletest1","attributeB","23","1","1232",TRUE
292,"3","3","incompatibletest1","targetBleft","18","1","706",TRUE
292,"3","4","incompatibletest1","attributeB","23","1","808",TRUE
292,"3","5","incompatibletest1","targetBleft","18","1","651",TRUE
292,"3","6","incompatibletest1","attributeA","18","1","766",TRUE
292,"3","7","incompatibletest1","targetAright","23","1","698",TRUE
292,"3","8","incompatibletest1","attributeB","23","1","654",TRUE
292,"3","9","incompatibletest1","targetBleft","18","1","653",TRUE
292,"3","10","incompatibletest1","attributeA","18","1","711",TRUE
292,"3","11","incompatibletest1","targetAright","23","1","659",TRUE
292,"3","12","incompatibletest1","attributeA","18","1","821",TRUE
292,"3","13","incompatibletest1","targetBleft","18","1","641",TRUE
292,"3","14","incompatibletest1","attributeA","18","1","679",TRUE
292,"3","15","incompatibletest1","targetAright","23","1","621",TRUE
292,"3","16","incompatibletest1","attributeB","23","1","566",TRUE
292,"3","17","incompatibletest1","targetAright","23","1","819",TRUE
292,"3","18","incompatibletest1","attributeB","23","1","577",TRUE
292,"3","19","incompatibletest1","targetBleft","18","1","591",TRUE
292,"3","20","incompatibletest1","attributeA","18","1","830",TRUE
292,"3","21","incompatibletest1","targetAright","23","1","606",TRUE
292,"5","1","incompatibletest2","attributeA","18","1","879",TRUE
292,"5","2","incompatibletest2","targetBleft","18","1","621",TRUE
292,"5","3","incompatibletest2","attributeA","18","1","623",TRUE
292,"5","4","incompatibletest2","targetBleft","18","1","572",TRUE
292,"5","5","incompatibletest2","attributeA","18","1","538",TRUE
292,"5","6","incompatibletest2","targetBleft","18","1","518",TRUE
292,"5","7","incompatibletest2","attributeB","23","0","1289",TRUE
292,"5","8","incompatibletest2","targetAright","23","1","923",TRUE
292,"5","9","incompatibletest2","attributeA","18","1","1010",TRUE
292,"5","10","incompatibletest2","targetAright","23","1","575",TRUE
292,"5","11","incompatibletest2","attributeA","18","1","575",TRUE
292,"5","12","incompatibletest2","targetBleft","18","1","577",TRUE
292,"5","13","incompatibletest2","attributeB","23","1","506",TRUE
292,"5","14","incompatibletest2","targetAright","23","1","566",TRUE
292,"5","15","incompatibletest2","attributeB","23","1","600",TRUE
292,"5","16","incompatibletest2","targetAright","23","1","624",TRUE
292,"5","17","incompatibletest2","attributeB","23","1","508",TRUE
292,"5","18","incompatibletest2","targetBleft","18","1","605",TRUE
292,"5","19","incompatibletest2","attributeB","23","1","590",TRUE
292,"5","20","incompatibletest2","targetAright","23","1","597",TRUE
292,"5","21","incompatibletest2","attributeB","23","1","566",TRUE
292,"5","22","incompatibletest2","targetBleft","18","1","615",TRUE
292,"5","23","incompatibletest2","attributeB","23","1","505",TRUE
292,"5","24","incompatibletest2","targetAright","23","1","698",TRUE
292,"5","25","incompatibletest2","attributeB","23","1","467",TRUE
292,"5","26","incompatibletest2","targetAright","23","0","940",TRUE
292,"5","27","incompatibletest2","attributeA","18","1","968",TRUE
292,"5","28","incompatibletest2","targetAright","23","1","716",TRUE
292,"5","29","incompatibletest2","attributeA","18","1","1054",TRUE
292,"5","30","incompatibletest2","targetBleft","18","1","637",TRUE
292,"5","31","incompatibletest2","attributeA","18","1","702",TRUE
292,"5","32","incompatibletest2","targetBleft","18","1","704",TRUE
292,"5","33","incompatibletest2","attributeA","18","1","982",TRUE
292,"5","34","incompatibletest2","targetAright","23","1","564",TRUE
292,"5","35","incompatibletest2","attributeA","18","1","632",TRUE
292,"5","36","incompatibletest2","targetBleft","18","1","726",TRUE
292,"5","37","incompatibletest2","attributeB","23","1","625",TRUE
292,"5","38","incompatibletest2","targetAright","23","1","740",TRUE
292,"5","39","incompatibletest2","attributeB","23","1","547",TRUE
292,"5","40","incompatibletest2","targetBleft","18","1","615",TRUE
292,"6","2","targetcompatiblepractice","targetAleft","18","1","695",TRUE
292,"6","3","targetcompatiblepractice","targetBright","23","1","516",TRUE
292,"6","4","targetcompatiblepractice","targetAleft","18","1","669",TRUE
292,"6","5","targetcompatiblepractice","targetBright","23","1","493",TRUE
292,"6","6","targetcompatiblepractice","targetBright","23","1","550",TRUE
292,"6","7","targetcompatiblepractice","targetAleft","18","1","559",TRUE
292,"6","8","targetcompatiblepractice","targetBright","23","1","584",TRUE
292,"6","9","targetcompatiblepractice","targetAleft","18","1","581",TRUE
292,"6","10","targetcompatiblepractice","targetBright","23","1","501",TRUE
292,"6","11","targetcompatiblepractice","targetAleft","18","1","507",TRUE
292,"6","12","targetcompatiblepractice","targetBright","23","1","491",TRUE
292,"6","13","targetcompatiblepractice","targetAleft","18","1","573",TRUE
292,"6","14","targetcompatiblepractice","targetBright","23","1","663",TRUE
292,"6","15","targetcompatiblepractice","targetAleft","18","1","502",TRUE
292,"6","16","targetcompatiblepractice","targetBright","23","1","512",TRUE
292,"6","17","targetcompatiblepractice","targetAleft","18","1","618",TRUE
292,"6","18","targetcompatiblepractice","targetBright","23","1","497",TRUE
292,"6","19","targetcompatiblepractice","targetAleft","18","1","527",TRUE
292,"6","20","targetcompatiblepractice","targetAleft","18","1","737",TRUE
292,"6","21","targetcompatiblepractice","targetBright","23","1","555",TRUE
292,"7","2","compatibletest1","attributeB","23","1","833",TRUE
292,"7","3","compatibletest1","targetAleft","18","1","594",TRUE
292,"7","4","compatibletest1","attributeA","18","1","616",TRUE
292,"7","5","compatibletest1","targetBright","23","1","545",TRUE
292,"7","6","compatibletest1","attributeA","18","1","679",TRUE
292,"7","7","compatibletest1","targetBright","23","1","972",TRUE
292,"7","8","compatibletest1","attributeB","23","1","710",TRUE
292,"7","9","compatibletest1","targetBright","23","1","492",TRUE
292,"7","10","compatibletest1","attributeB","23","1","463",TRUE
292,"7","11","compatibletest1","targetAleft","18","1","573",TRUE
292,"7","12","compatibletest1","attributeA","18","1","486",TRUE
292,"7","13","compatibletest1","targetBright","23","1","563",TRUE
292,"7","14","compatibletest1","attributeB","23","1","498",TRUE
292,"7","15","compatibletest1","targetAleft","18","1","576",TRUE
292,"7","16","compatibletest1","attributeA","18","1","445",TRUE
292,"7","17","compatibletest1","targetAleft","18","1","665",TRUE
292,"7","18","compatibletest1","attributeB","23","1","446",TRUE
292,"7","19","compatibletest1","targetAleft","18","1","618",TRUE
292,"7","20","compatibletest1","attributeA","18","1","474",TRUE
292,"7","21","compatibletest1","targetBright","23","1","554",TRUE
292,"9","1","compatibletest2","attributeA","18","1","793",TRUE
292,"9","2","compatibletest2","targetBright","23","1","912",TRUE
292,"9","3","compatibletest2","attributeB","23","1","575",TRUE
292,"9","4","compatibletest2","targetBright","23","1","581",TRUE
292,"9","5","compatibletest2","attributeB","23","1","587",TRUE
292,"9","6","compatibletest2","targetBright","23","1","650",TRUE
292,"9","7","compatibletest2","attributeA","18","1","567",TRUE
292,"9","8","compatibletest2","targetAleft","18","1","548",TRUE
292,"9","9","compatibletest2","attributeB","23","1","546",TRUE
292,"9","10","compatibletest2","targetAleft","18","1","742",TRUE
292,"9","11","compatibletest2","attributeB","23","1","545",TRUE
292,"9","12","compatibletest2","targetBright","23","1","609",TRUE
292,"9","13","compatibletest2","attributeA","18","1","511",TRUE
292,"9","14","compatibletest2","targetAleft","18","1","512",TRUE
292,"9","15","compatibletest2","attributeA","18","1","637",TRUE
292,"9","16","compatibletest2","targetBright","23","1","587",TRUE
292,"9","17","compatibletest2","attributeA","18","1","521",TRUE
292,"9","18","compatibletest2","targetAleft","18","1","593",TRUE
292,"9","19","compatibletest2","attributeB","23","1","537",TRUE
292,"9","20","compatibletest2","targetBright","23","1","458",TRUE
292,"9","21","compatibletest2","attributeB","23","1","454",TRUE
292,"9","22","compatibletest2","targetBright","23","1","481",TRUE
292,"9","23","compatibletest2","attributeB","23","1","520",TRUE
292,"9","24","compatibletest2","targetAleft","18","1","602",TRUE
292,"9","25","compatibletest2","attributeA","18","1","761",TRUE
292,"9","26","compatibletest2","targetAleft","18","1","575",TRUE
292,"9","27","compatibletest2","attributeA","18","1","483",TRUE
292,"9","28","compatibletest2","targetBright","23","1","684",TRUE
292,"9","29","compatibletest2","attributeB","23","1","499",TRUE
292,"9","30","compatibletest2","targetAleft","18","1","626",TRUE
292,"9","31","compatibletest2","attributeB","23","1","578",TRUE
292,"9","32","compatibletest2","targetAleft","18","1","588",TRUE
292,"9","33","compatibletest2","attributeB","23","1","465",TRUE
292,"9","34","compatibletest2","targetBright","23","1","627",TRUE
292,"9","35","compatibletest2","attributeA","18","1","529",TRUE
292,"9","36","compatibletest2","targetBright","23","1","586",TRUE
292,"9","37","compatibletest2","attributeA","18","1","544",TRUE
292,"9","38","compatibletest2","targetAleft","18","1","588",TRUE
292,"9","39","compatibletest2","attributeA","18","1","640",TRUE
292,"9","40","compatibletest2","targetAleft","18","1","578",TRUE
293,"1","2","targetcompatiblepractice","targetAleft","18","1","1338",TRUE
293,"1","3","targetcompatiblepractice","targetAleft","18","1","1327",TRUE
293,"1","4","targetcompatiblepractice","targetBright","23","1","1373",TRUE
293,"1","5","targetcompatiblepractice","targetAleft","18","1","505",TRUE
293,"1","6","targetcompatiblepractice","targetBright","23","1","689",TRUE
293,"1","7","targetcompatiblepractice","targetAleft","18","1","897",TRUE
293,"1","8","targetcompatiblepractice","targetAleft","18","1","441",TRUE
293,"1","9","targetcompatiblepractice","targetBright","23","1","587",TRUE
293,"1","10","targetcompatiblepractice","targetBright","23","1","512",TRUE
293,"1","11","targetcompatiblepractice","targetAleft","18","1","768",TRUE
293,"1","12","targetcompatiblepractice","targetBright","23","1","564",TRUE
293,"1","13","targetcompatiblepractice","targetAleft","18","1","650",TRUE
293,"1","14","targetcompatiblepractice","targetBright","23","0","1204",TRUE
293,"1","15","targetcompatiblepractice","targetBright","23","1","1038",TRUE
293,"1","16","targetcompatiblepractice","targetBright","23","1","735",TRUE
293,"1","17","targetcompatiblepractice","targetBright","23","1","485",TRUE
293,"1","18","targetcompatiblepractice","targetAleft","18","1","534",TRUE
293,"1","19","targetcompatiblepractice","targetAleft","18","1","389",TRUE
293,"1","20","targetcompatiblepractice","targetBright","23","0","785",TRUE
293,"1","21","targetcompatiblepractice","targetAleft","18","1","509",TRUE
293,"2","2","attributepractice","attributeA","18","1","1082",TRUE
293,"2","3","attributepractice","attributeA","18","1","875",TRUE
293,"2","4","attributepractice","attributeA","18","1","587",TRUE
293,"2","5","attributepractice","attributeB","23","1","448",TRUE
293,"2","6","attributepractice","attributeA","18","1","634",TRUE
293,"2","7","attributepractice","attributeB","23","1","573",TRUE
293,"2","8","attributepractice","attributeB","23","1","754",TRUE
293,"2","9","attributepractice","attributeB","23","1","447",TRUE
293,"2","10","attributepractice","attributeA","18","0","906",TRUE
293,"2","11","attributepractice","attributeB","23","0","904",TRUE
293,"2","12","attributepractice","attributeA","18","1","495",TRUE
293,"2","13","attributepractice","attributeA","18","1","471",TRUE
293,"2","14","attributepractice","attributeA","18","1","481",TRUE
293,"2","15","attributepractice","attributeB","23","1","546",TRUE
293,"2","16","attributepractice","attributeA","18","1","729",TRUE
293,"2","17","attributepractice","attributeA","18","1","695",TRUE
293,"2","18","attributepractice","attributeB","23","1","1024",TRUE
293,"2","19","attributepractice","attributeB","23","1","730",TRUE
293,"2","20","attributepractice","attributeB","23","1","601",TRUE
293,"2","21","attributepractice","attributeB","23","1","548",TRUE
293,"3","2","compatibletest1","attributeA","18","1","884",TRUE
293,"3","3","compatibletest1","targetAleft","18","1","772",TRUE
293,"3","4","compatibletest1","attributeA","18","1","632",TRUE
293,"3","5","compatibletest1","targetBright","23","1","587",TRUE
293,"3","6","compatibletest1","attributeA","18","1","744",TRUE
293,"3","7","compatibletest1","targetBright","23","1","590",TRUE
293,"3","8","compatibletest1","attributeB","23","1","634",TRUE
293,"3","9","compatibletest1","targetAleft","18","1","541",TRUE
293,"3","10","compatibletest1","attributeB","23","1","539",TRUE
293,"3","11","compatibletest1","targetAleft","18","1","498",TRUE
293,"3","12","compatibletest1","attributeB","23","1","618",TRUE
293,"3","13","compatibletest1","targetAleft","18","1","517",TRUE
293,"3","14","compatibletest1","attributeA","18","1","541",TRUE
293,"3","15","compatibletest1","targetBright","23","1","611",TRUE
293,"3","16","compatibletest1","attributeA","18","1","687",TRUE
293,"3","17","compatibletest1","targetBright","23","1","599",TRUE
293,"3","18","compatibletest1","attributeB","23","0","1051",TRUE
293,"3","19","compatibletest1","targetBright","23","0","796",TRUE
293,"3","20","compatibletest1","attributeB","23","0","1039",TRUE
293,"3","21","compatibletest1","targetAleft","18","1","528",TRUE
293,"5","1","compatibletest2","attributeA","18","1","988",TRUE
293,"5","2","compatibletest2","targetBright","23","1","680",TRUE
293,"5","3","compatibletest2","attributeA","18","1","545",TRUE
293,"5","4","compatibletest2","targetBright","23","1","544",TRUE
293,"5","5","compatibletest2","attributeB","23","0","766",TRUE
293,"5","6","compatibletest2","targetBright","23","1","555",TRUE
293,"5","7","compatibletest2","attributeA","18","1","577",TRUE
293,"5","8","compatibletest2","targetBright","23","1","606",TRUE
293,"5","9","compatibletest2","attributeB","23","1","745",TRUE
293,"5","10","compatibletest2","targetBright","23","1","568",TRUE
293,"5","11","compatibletest2","attributeA","18","0","1877",TRUE
293,"5","12","compatibletest2","targetAleft","18","1","835",TRUE
293,"5","13","compatibletest2","attributeA","18","1","733",TRUE
293,"5","14","compatibletest2","targetAleft","18","1","1460",TRUE
293,"5","15","compatibletest2","attributeA","18","1","740",TRUE
293,"5","16","compatibletest2","targetAleft","18","1","546",TRUE
293,"5","17","compatibletest2","attributeB","23","1","632",TRUE
293,"5","18","compatibletest2","targetAleft","18","0","995",TRUE
293,"5","19","compatibletest2","attributeA","18","1","550",TRUE
293,"5","20","compatibletest2","targetBright","23","1","588",TRUE
293,"5","21","compatibletest2","attributeB","23","1","721",TRUE
293,"5","22","compatibletest2","targetAleft","18","1","527",TRUE
293,"5","23","compatibletest2","attributeA","18","1","479",TRUE
293,"5","24","compatibletest2","targetAleft","18","1","600",TRUE
293,"5","25","compatibletest2","attributeA","18","1","492",TRUE
293,"5","26","compatibletest2","targetAleft","18","1","444",TRUE
293,"5","27","compatibletest2","attributeA","18","1","431",TRUE
293,"5","28","compatibletest2","targetAleft","18","1","386",TRUE
293,"5","29","compatibletest2","attributeB","23","1","591",TRUE
293,"5","30","compatibletest2","targetAleft","18","1","660",TRUE
293,"5","31","compatibletest2","attributeB","23","1","581",TRUE
293,"5","32","compatibletest2","targetBright","23","1","634",TRUE
293,"5","33","compatibletest2","attributeB","23","1","613",TRUE
293,"5","34","compatibletest2","targetAleft","18","1","528",TRUE
293,"5","35","compatibletest2","attributeB","23","0","720",TRUE
293,"5","36","compatibletest2","targetBright","23","1","518",TRUE
293,"5","37","compatibletest2","attributeB","23","1","501",TRUE
293,"5","38","compatibletest2","targetBright","23","1","557",TRUE
293,"5","39","compatibletest2","attributeB","23","1","403",TRUE
293,"5","40","compatibletest2","targetBright","23","1","463",TRUE
293,"6","2","targetincompatiblepractice","targetBleft","18","1","743",TRUE
293,"6","3","targetincompatiblepractice","targetAright","23","0","1733",TRUE
293,"6","4","targetincompatiblepractice","targetAright","23","0","1425",TRUE
293,"6","5","targetincompatiblepractice","targetAright","23","1","706",TRUE
293,"6","6","targetincompatiblepractice","targetBleft","18","1","618",TRUE
293,"6","7","targetincompatiblepractice","targetBleft","18","0","653",TRUE
293,"6","8","targetincompatiblepractice","targetAright","23","1","134",TRUE
293,"6","9","targetincompatiblepractice","targetAright","23","1","5",TRUE
293,"6","10","targetincompatiblepractice","targetAright","23","1","2",TRUE
293,"6","11","targetincompatiblepractice","targetAright","23","1","7",TRUE
293,"6","12","targetincompatiblepractice","targetBleft","18","1","36",TRUE
293,"6","13","targetincompatiblepractice","targetBleft","18","0","1303",TRUE
293,"6","14","targetincompatiblepractice","targetBleft","18","1","245",TRUE
293,"6","15","targetincompatiblepractice","targetBleft","18","0","1648",TRUE
293,"6","16","targetincompatiblepractice","targetAright","23","0","1047",TRUE
293,"6","17","targetincompatiblepractice","targetAright","23","1","784",TRUE
293,"6","18","targetincompatiblepractice","targetBleft","18","0","1796",TRUE
293,"6","19","targetincompatiblepractice","targetBleft","18","1","878",TRUE
293,"6","20","targetincompatiblepractice","targetBleft","18","1","534",TRUE
293,"6","21","targetincompatiblepractice","targetAright","23","1","653",TRUE
293,"7","2","incompatibletest1","attributeA","18","1","340",TRUE
293,"7","3","incompatibletest1","targetBleft","18","1","219",TRUE
293,"7","4","incompatibletest1","attributeB","23","0","1487",TRUE
293,"7","5","incompatibletest1","targetAright","23","1","197",TRUE
293,"7","6","incompatibletest1","attributeB","23","0","394",TRUE
293,"7","7","incompatibletest1","targetBleft","18","1","1294",TRUE
293,"7","8","incompatibletest1","attributeB","23","0","1077",TRUE
293,"7","9","incompatibletest1","targetBleft","18","1","804",TRUE
293,"7","10","incompatibletest1","attributeA","18","0","1136",TRUE
293,"7","11","incompatibletest1","targetBleft","18","1","93",TRUE
293,"7","12","incompatibletest1","attributeA","18","1","30",TRUE
293,"7","13","incompatibletest1","targetBleft","18","0","1642",TRUE
293,"7","14","incompatibletest1","attributeB","23","0","914",TRUE
293,"7","15","incompatibletest1","targetAright","23","0","1864",TRUE
293,"7","16","incompatibletest1","attributeB","23","1","1559",TRUE
293,"7","17","incompatibletest1","targetAright","23","0","1123",TRUE
293,"7","18","incompatibletest1","attributeA","18","0","984",TRUE
293,"7","19","incompatibletest1","targetAright","23","1","123",TRUE
293,"7","20","incompatibletest1","attributeA","18","1","83",TRUE
293,"7","21","incompatibletest1","targetAright","23","0","597",TRUE
293,"9","1","incompatibletest2","attributeA","18","1","242",TRUE
293,"9","2","incompatibletest2","targetAright","23","0","1325",TRUE
293,"9","3","incompatibletest2","attributeB","23","1","42",TRUE
293,"9","4","incompatibletest2","targetAright","23","0","174",TRUE
293,"9","5","incompatibletest2","attributeA","18","1","75",TRUE
293,"9","6","incompatibletest2","targetBleft","18","0","173",TRUE
293,"9","7","incompatibletest2","attributeA","18","0","162",TRUE
293,"9","8","incompatibletest2","targetBleft","18","1","160",TRUE
293,"9","9","incompatibletest2","attributeB","23","1","126",TRUE
293,"9","10","incompatibletest2","targetAright","23","1","870",TRUE
293,"9","11","incompatibletest2","attributeA","18","0","1351",TRUE
293,"9","12","incompatibletest2","targetAright","23","1","35",TRUE
293,"9","13","incompatibletest2","attributeA","18","1","127",TRUE
293,"9","14","incompatibletest2","targetBleft","18","1","287",TRUE
293,"9","15","incompatibletest2","attributeB","23","0","816",TRUE
293,"9","16","incompatibletest2","targetBleft","18","1","4394",TRUE
293,"9","17","incompatibletest2","attributeB","23","0","2183",TRUE
293,"9","18","incompatibletest2","targetAright","23","1","1705",TRUE
293,"9","19","incompatibletest2","attributeB","23","1","1079",TRUE
293,"9","20","incompatibletest2","targetAright","23","1","791",TRUE
293,"9","21","incompatibletest2","attributeA","18","1","1171",TRUE
293,"9","22","incompatibletest2","targetBleft","18","1","1247",TRUE
293,"9","23","incompatibletest2","attributeB","23","1","808",TRUE
293,"9","24","incompatibletest2","targetAright","23","1","907",TRUE
293,"9","25","incompatibletest2","attributeB","23","1","619",TRUE
293,"9","26","incompatibletest2","targetBleft","18","0","1086",TRUE
293,"9","27","incompatibletest2","attributeA","18","1","917",TRUE
293,"9","28","incompatibletest2","targetBleft","18","1","980",TRUE
293,"9","29","incompatibletest2","attributeA","18","1","872",TRUE
293,"9","30","incompatibletest2","targetAright","23","1","1201",TRUE
293,"9","31","incompatibletest2","attributeA","18","0","2020",TRUE
293,"9","32","incompatibletest2","targetAright","23","1","1292",TRUE
293,"9","33","incompatibletest2","attributeB","23","1","1099",TRUE
293,"9","34","incompatibletest2","targetBleft","18","1","1066",TRUE
293,"9","35","incompatibletest2","attributeB","23","0","1371",TRUE
293,"9","36","incompatibletest2","targetBleft","18","1","1158",TRUE
293,"9","37","incompatibletest2","attributeA","18","1","1066",TRUE
293,"9","38","incompatibletest2","targetAright","23","0","979",TRUE
293,"9","39","incompatibletest2","attributeB","23","1","935",TRUE
293,"9","40","incompatibletest2","targetBleft","18","1","956",TRUE
291,"1","2","targetcompatiblepractice","targetBright","23","0","1618",TRUE
291,"1","3","targetcompatiblepractice","targetBright","23","1","601",TRUE
291,"1","4","targetcompatiblepractice","targetAleft","18","0","918",TRUE
291,"1","5","targetcompatiblepractice","targetAleft","18","1","734",TRUE
291,"1","6","targetcompatiblepractice","targetBright","23","1","777",TRUE
291,"1","7","targetcompatiblepractice","targetBright","23","1","544",TRUE
291,"1","8","targetcompatiblepractice","targetBright","23","1","588",TRUE
291,"1","9","targetcompatiblepractice","targetBright","23","1","453",TRUE
291,"1","10","targetcompatiblepractice","targetAleft","18","1","701",TRUE
291,"1","11","targetcompatiblepractice","targetAleft","18","1","673",TRUE
291,"1","12","targetcompatiblepractice","targetAleft","18","1","732",TRUE
291,"1","13","targetcompatiblepractice","targetBright","23","1","720",TRUE
291,"1","14","targetcompatiblepractice","targetAleft","18","0","1280",TRUE
291,"1","15","targetcompatiblepractice","targetAleft","18","1","570",TRUE
291,"1","16","targetcompatiblepractice","targetAleft","18","1","728",TRUE
291,"1","17","targetcompatiblepractice","targetBright","23","1","557",TRUE
291,"1","18","targetcompatiblepractice","targetAleft","18","1","1012",TRUE
291,"1","19","targetcompatiblepractice","targetBright","23","1","541",TRUE
291,"1","20","targetcompatiblepractice","targetAleft","18","1","612",TRUE
291,"1","21","targetcompatiblepractice","targetBright","23","1","605",TRUE
291,"2","2","attributepractice","attributeB","23","1","2420",TRUE
291,"2","3","attributepractice","attributeB","23","1","920",TRUE
291,"2","4","attributepractice","attributeB","23","1","976",TRUE
291,"2","5","attributepractice","attributeA","18","1","586",TRUE
291,"2","6","attributepractice","attributeA","18","1","632",TRUE
291,"2","7","attributepractice","attributeB","23","1","724",TRUE
291,"2","8","attributepractice","attributeA","18","1","832",TRUE
291,"2","9","attributepractice","attributeA","18","1","1088",TRUE
291,"2","10","attributepractice","attributeB","23","1","765",TRUE
291,"2","11","attributepractice","attributeB","23","1","700",TRUE
291,"2","12","attributepractice","attributeB","23","1","573",TRUE
291,"2","13","attributepractice","attributeA","18","1","931",TRUE
291,"2","14","attributepractice","attributeA","18","1","1307",TRUE
291,"2","15","attributepractice","attributeA","18","1","1320",TRUE
291,"2","16","attributepractice","attributeB","23","1","648",TRUE
291,"2","17","attributepractice","attributeA","18","1","631",TRUE
291,"2","18","attributepractice","attributeB","23","1","552",TRUE
291,"2","19","attributepractice","attributeB","23","1","607",TRUE
291,"2","20","attributepractice","attributeA","18","1","612",TRUE
291,"2","21","attributepractice","attributeA","18","1","509",TRUE
291,"3","2","compatibletest1","attributeB","23","1","2389",TRUE
291,"3","3","compatibletest1","targetBright","23","1","786",TRUE
291,"3","4","compatibletest1","attributeB","23","0","1208",TRUE
291,"3","5","compatibletest1","targetAleft","18","1","652",TRUE
291,"3","6","compatibletest1","attributeB","23","1","1263",TRUE
291,"3","7","compatibletest1","targetAleft","18","1","1418",TRUE
291,"3","8","compatibletest1","attributeA","18","1","826",TRUE
291,"3","9","compatibletest1","targetBright","23","1","662",TRUE
291,"3","10","compatibletest1","attributeA","18","1","1089",TRUE
291,"3","11","compatibletest1","targetAleft","18","1","1347",TRUE
291,"3","12","compatibletest1","attributeB","23","1","962",TRUE
291,"3","13","compatibletest1","targetBright","23","0","1165",TRUE
291,"3","14","compatibletest1","attributeA","18","1","2631",TRUE
291,"3","15","compatibletest1","targetBright","23","1","2403",TRUE
291,"3","16","compatibletest1","attributeB","23","1","735",TRUE
291,"3","17","compatibletest1","targetBright","23","1","794",TRUE
291,"3","18","compatibletest1","attributeA","18","1","712",TRUE
291,"3","19","compatibletest1","targetAleft","18","1","1037",TRUE
291,"3","20","compatibletest1","attributeA","18","1","1105",TRUE
291,"3","21","compatibletest1","targetAleft","18","1","678",TRUE
291,"5","1","compatibletest2","attributeB","23","1","1306",TRUE
291,"5","2","compatibletest2","targetBright","23","1","683",TRUE
291,"5","3","compatibletest2","attributeB","23","1","597",TRUE
291,"5","4","compatibletest2","targetBright","23","1","482",TRUE
291,"5","5","compatibletest2","attributeB","23","1","520",TRUE
291,"5","6","compatibletest2","targetBright","23","1","528",TRUE
291,"5","7","compatibletest2","attributeA","18","1","1029",TRUE
291,"5","8","compatibletest2","targetAleft","18","1","717",TRUE
291,"5","9","compatibletest2","attributeA","18","1","585",TRUE
291,"5","10","compatibletest2","targetAleft","18","1","371",TRUE
291,"5","11","compatibletest2","attributeA","18","1","698",TRUE
291,"5","12","compatibletest2","targetAleft","18","1","475",TRUE
291,"5","13","compatibletest2","attributeB","23","1","766",TRUE
291,"5","14","compatibletest2","targetAleft","18","0","952",TRUE
291,"5","15","compatibletest2","attributeA","18","1","858",TRUE
291,"5","16","compatibletest2","targetAleft","18","1","645",TRUE
291,"5","17","compatibletest2","attributeB","23","1","665",TRUE
291,"5","18","compatibletest2","targetBright","23","1","567",TRUE
291,"5","19","compatibletest2","attributeB","23","1","882",TRUE
291,"5","20","compatibletest2","targetAleft","18","0","1043",TRUE
291,"5","21","compatibletest2","attributeB","23","1","734",TRUE
291,"5","22","compatibletest2","targetAleft","18","1","766",TRUE
291,"5","23","compatibletest2","attributeB","23","1","636",TRUE
291,"5","24","compatibletest2","targetAleft","18","1","704",TRUE
291,"5","25","compatibletest2","attributeB","23","1","785",TRUE
291,"5","26","compatibletest2","targetBright","23","0","1371",TRUE
291,"5","27","compatibletest2","attributeA","18","1","652",TRUE
291,"5","28","compatibletest2","targetAleft","18","1","595",TRUE
291,"5","29","compatibletest2","attributeA","18","1","657",TRUE
291,"5","30","compatibletest2","targetBright","23","1","476",TRUE
291,"5","31","compatibletest2","attributeA","18","1","626",TRUE
291,"5","32","compatibletest2","targetBright","23","1","719",TRUE
291,"5","33","compatibletest2","attributeA","18","1","415",TRUE
291,"5","34","compatibletest2","targetBright","23","1","584",TRUE
291,"5","35","compatibletest2","attributeA","18","1","585",TRUE
291,"5","36","compatibletest2","targetAleft","18","1","687",TRUE
291,"5","37","compatibletest2","attributeB","23","1","1177",TRUE
291,"5","38","compatibletest2","targetBright","23","0","1719",TRUE
291,"5","39","compatibletest2","attributeA","18","1","746",TRUE
291,"5","40","compatibletest2","targetBright","23","1","718",TRUE
291,"6","2","targetincompatiblepractice","targetBleft","18","1","1741",TRUE
291,"6","3","targetincompatiblepractice","targetAright","23","1","629",TRUE
291,"6","4","targetincompatiblepractice","targetBleft","18","1","593",TRUE
291,"6","5","targetincompatiblepractice","targetBleft","18","1","647",TRUE
291,"6","6","targetincompatiblepractice","targetBleft","18","1","579",TRUE
291,"6","7","targetincompatiblepractice","targetAright","23","1","645",TRUE
291,"6","8","targetincompatiblepractice","targetBleft","18","1","629",TRUE
291,"6","9","targetincompatiblepractice","targetAright","23","1","533",TRUE
291,"6","10","targetincompatiblepractice","targetAright","23","1","653",TRUE
291,"6","11","targetincompatiblepractice","targetBleft","18","1","676",TRUE
291,"6","12","targetincompatiblepractice","targetBleft","18","1","602",TRUE
291,"6","13","targetincompatiblepractice","targetBleft","18","1","559",TRUE
291,"6","14","targetincompatiblepractice","targetAright","23","1","638",TRUE
291,"6","15","targetincompatiblepractice","targetAright","23","1","638",TRUE
291,"6","16","targetincompatiblepractice","targetBleft","18","1","594",TRUE
291,"6","17","targetincompatiblepractice","targetBleft","18","1","631",TRUE
291,"6","18","targetincompatiblepractice","targetAright","23","1","788",TRUE
291,"6","19","targetincompatiblepractice","targetAright","23","1","517",TRUE
291,"6","20","targetincompatiblepractice","targetAright","23","1","534",TRUE
291,"6","21","targetincompatiblepractice","targetAright","23","1","526",TRUE
291,"7","2","incompatibletest1","attributeB","23","1","1425",TRUE
291,"7","3","incompatibletest1","targetBleft","18","1","806",TRUE
291,"7","4","incompatibletest1","attributeA","18","0","1490",TRUE
291,"7","5","incompatibletest1","targetBleft","18","1","607",TRUE
291,"7","6","incompatibletest1","attributeA","18","1","784",TRUE
291,"7","7","incompatibletest1","targetBleft","18","1","534",TRUE
291,"7","8","incompatibletest1","attributeB","23","0","1102",TRUE
291,"7","9","incompatibletest1","targetBleft","18","1","742",TRUE
291,"7","10","incompatibletest1","attributeB","23","1","722",TRUE
291,"7","11","incompatibletest1","targetAright","23","1","2022",TRUE
291,"7","12","incompatibletest1","attributeA","18","1","638",TRUE
291,"7","13","incompatibletest1","targetBleft","18","1","1074",TRUE
291,"7","14","incompatibletest1","attributeA","18","0","1796",TRUE
291,"7","15","incompatibletest1","targetAright","23","1","1452",TRUE
291,"7","16","incompatibletest1","attributeA","18","1","696",TRUE
291,"7","17","incompatibletest1","targetAright","23","1","1997",TRUE
291,"7","18","incompatibletest1","attributeB","23","1","1854",TRUE
291,"7","19","incompatibletest1","targetAright","23","1","949",TRUE
291,"7","20","incompatibletest1","attributeB","23","1","632",TRUE
291,"7","21","incompatibletest1","targetAright","23","1","439",TRUE
291,"9","1","incompatibletest2","attributeA","18","1","1621",TRUE
291,"9","2","incompatibletest2","targetAright","23","1","1057",TRUE
291,"9","3","incompatibletest2","attributeB","23","1","1040",TRUE
291,"9","4","incompatibletest2","targetAright","23","1","535",TRUE
291,"9","5","incompatibletest2","attributeA","18","1","795",TRUE
291,"9","6","incompatibletest2","targetBleft","18","1","629",TRUE
291,"9","7","incompatibletest2","attributeA","18","1","909",TRUE
291,"9","8","incompatibletest2","targetBleft","18","1","434",TRUE
291,"9","9","incompatibletest2","attributeB","23","0","1182",TRUE
291,"9","10","incompatibletest2","targetAright","23","1","810",TRUE
291,"9","11","incompatibletest2","attributeA","18","1","720",TRUE
291,"9","12","incompatibletest2","targetBleft","18","1","520",TRUE
291,"9","13","incompatibletest2","attributeB","23","0","1445",TRUE
291,"9","14","incompatibletest2","targetAright","23","0","1879",TRUE
291,"9","15","incompatibletest2","attributeB","23","1","1920",TRUE
291,"9","16","incompatibletest2","targetAright","23","1","1348",TRUE
291,"9","17","incompatibletest2","attributeA","18","1","768",TRUE
291,"9","18","incompatibletest2","targetAright","23","1","634",TRUE
291,"9","19","incompatibletest2","attributeB","23","1","966",TRUE
291,"9","20","incompatibletest2","targetBleft","18","1","708",TRUE
291,"9","21","incompatibletest2","attributeB","23","1","857",TRUE
291,"9","22","incompatibletest2","targetBleft","18","1","836",TRUE
291,"9","23","incompatibletest2","attributeA","18","1","920",TRUE
291,"9","24","incompatibletest2","targetAright","23","1","692",TRUE
291,"9","25","incompatibletest2","attributeA","18","1","909",TRUE
291,"9","26","incompatibletest2","targetAright","23","1","662",TRUE
291,"9","27","incompatibletest2","attributeB","23","1","1705",TRUE
291,"9","28","incompatibletest2","targetBleft","18","1","942",TRUE
291,"9","29","incompatibletest2","attributeB","23","1","1162",TRUE
291,"9","30","incompatibletest2","targetAright","23","0","1481",TRUE
291,"9","31","incompatibletest2","attributeA","18","1","902",TRUE
291,"9","32","incompatibletest2","targetBleft","18","1","1207",TRUE
291,"9","33","incompatibletest2","attributeA","18","1","624",TRUE
291,"9","34","incompatibletest2","targetBleft","18","1","544",TRUE
291,"9","35","incompatibletest2","attributeB","23","1","932",TRUE
291,"9","36","incompatibletest2","targetAright","23","1","1668",TRUE
291,"9","37","incompatibletest2","attributeB","23","1","2726",TRUE
291,"9","38","incompatibletest2","targetBleft","18","1","657",TRUE
291,"9","39","incompatibletest2","attributeA","18","0","1484",TRUE
291,"9","40","incompatibletest2","targetBleft","18","0","1485",TRUE
290,"1","2","targetincompatiblepractice","targetAright","23","1","1599",TRUE
290,"1","3","targetincompatiblepractice","targetBleft","18","1","668",TRUE
290,"1","4","targetincompatiblepractice","targetAright","23","1","1620",TRUE
290,"1","5","targetincompatiblepractice","targetBleft","18","1","711",TRUE
290,"1","6","targetincompatiblepractice","targetBleft","18","1","760",TRUE
290,"1","7","targetincompatiblepractice","targetBleft","18","1","607",TRUE
290,"1","8","targetincompatiblepractice","targetAright","23","1","672",TRUE
290,"1","9","targetincompatiblepractice","targetAright","23","1","660",TRUE
290,"1","10","targetincompatiblepractice","targetAright","23","1","511",TRUE
290,"1","11","targetincompatiblepractice","targetAright","23","1","588",TRUE
290,"1","12","targetincompatiblepractice","targetBleft","18","1","547",TRUE
290,"1","13","targetincompatiblepractice","targetBleft","18","1","448",TRUE
290,"1","14","targetincompatiblepractice","targetBleft","18","1","566",TRUE
290,"1","15","targetincompatiblepractice","targetAright","23","1","647",TRUE
290,"1","16","targetincompatiblepractice","targetAright","23","1","636",TRUE
290,"1","17","targetincompatiblepractice","targetBleft","18","1","626",TRUE
290,"1","18","targetincompatiblepractice","targetAright","23","0","1229",TRUE
290,"1","19","targetincompatiblepractice","targetBleft","18","1","1757",TRUE
290,"1","20","targetincompatiblepractice","targetAright","23","1","569",TRUE
290,"1","21","targetincompatiblepractice","targetBleft","18","1","645",TRUE
290,"2","2","attributepractice","attributeA","18","1","1335",TRUE
290,"2","3","attributepractice","attributeA","18","1","1153",TRUE
290,"2","4","attributepractice","attributeA","18","1","616",TRUE
290,"2","5","attributepractice","attributeB","23","1","652",TRUE
290,"2","6","attributepractice","attributeB","23","1","454",TRUE
290,"2","7","attributepractice","attributeA","18","1","593",TRUE
290,"2","8","attributepractice","attributeA","18","1","462",TRUE
290,"2","9","attributepractice","attributeB","23","1","641",TRUE
290,"2","10","attributepractice","attributeA","18","1","600",TRUE
290,"2","11","attributepractice","attributeA","18","1","548",TRUE
290,"2","12","attributepractice","attributeB","23","1","760",TRUE
290,"2","13","attributepractice","attributeB","23","1","536",TRUE
290,"2","14","attributepractice","attributeA","18","1","599",TRUE
290,"2","15","attributepractice","attributeA","18","1","460",TRUE
290,"2","16","attributepractice","attributeB","23","1","682",TRUE
290,"2","17","attributepractice","attributeB","23","1","635",TRUE
290,"2","18","attributepractice","attributeB","23","1","531",TRUE
290,"2","19","attributepractice","attributeB","23","1","557",TRUE
290,"2","20","attributepractice","attributeB","23","1","593",TRUE
290,"2","21","attributepractice","attributeA","18","1","662",TRUE
290,"3","2","incompatibletest1","attributeA","18","1","1741",TRUE
290,"3","3","incompatibletest1","targetAright","23","1","1334",TRUE
290,"3","4","incompatibletest1","attributeA","18","1","1503",TRUE
290,"3","5","incompatibletest1","targetAright","23","1","1240",TRUE
290,"3","6","incompatibletest1","attributeB","23","1","2174",TRUE
290,"3","7","incompatibletest1","targetAright","23","1","1732",TRUE
290,"3","8","incompatibletest1","attributeB","23","1","1007",TRUE
290,"3","9","incompatibletest1","targetBleft","18","1","754",TRUE
290,"3","10","incompatibletest1","attributeA","18","1","792",TRUE
290,"3","11","incompatibletest1","targetAright","23","1","717",TRUE
290,"3","12","incompatibletest1","attributeB","23","1","760",TRUE
290,"3","13","incompatibletest1","targetAright","23","1","682",TRUE
290,"3","14","incompatibletest1","attributeB","23","1","806",TRUE
290,"3","15","incompatibletest1","targetBleft","18","1","701",TRUE
290,"3","16","incompatibletest1","attributeB","23","1","670",TRUE
290,"3","17","incompatibletest1","targetBleft","18","1","1278",TRUE
290,"3","18","incompatibletest1","attributeA","18","1","794",TRUE
290,"3","19","incompatibletest1","targetBleft","18","1","625",TRUE
290,"3","20","incompatibletest1","attributeA","18","1","635",TRUE
290,"3","21","incompatibletest1","targetBleft","18","1","645",TRUE
290,"5","1","incompatibletest2","attributeA","18","1","1145",TRUE
290,"5","2","incompatibletest2","targetBleft","18","1","834",TRUE
290,"5","3","incompatibletest2","attributeB","23","1","791",TRUE
290,"5","4","incompatibletest2","targetAright","23","1","647",TRUE
290,"5","5","incompatibletest2","attributeA","18","1","897",TRUE
290,"5","6","incompatibletest2","targetAright","23","1","639",TRUE
290,"5","7","incompatibletest2","attributeB","23","1","718",TRUE
290,"5","8","incompatibletest2","targetAright","23","1","739",TRUE
290,"5","9","incompatibletest2","attributeA","18","1","719",TRUE
290,"5","10","incompatibletest2","targetBleft","18","1","757",TRUE
290,"5","11","incompatibletest2","attributeB","23","1","910",TRUE
290,"5","12","incompatibletest2","targetAright","23","1","702",TRUE
290,"5","13","incompatibletest2","attributeB","23","1","765",TRUE
290,"5","14","incompatibletest2","targetBleft","18","1","744",TRUE
290,"5","15","incompatibletest2","attributeA","18","1","1271",TRUE
290,"5","16","incompatibletest2","targetAright","23","1","823",TRUE
290,"5","17","incompatibletest2","attributeA","18","1","886",TRUE
290,"5","18","incompatibletest2","targetAright","23","1","738",TRUE
290,"5","19","incompatibletest2","attributeB","23","1","714",TRUE
290,"5","20","incompatibletest2","targetBleft","18","1","640",TRUE
290,"5","21","incompatibletest2","attributeB","23","1","737",TRUE
290,"5","22","incompatibletest2","targetAright","23","1","677",TRUE
290,"5","23","incompatibletest2","attributeA","18","1","726",TRUE
290,"5","24","incompatibletest2","targetBleft","18","1","865",TRUE
290,"5","25","incompatibletest2","attributeA","18","1","1040",TRUE
290,"5","26","incompatibletest2","targetBleft","18","1","743",TRUE
290,"5","27","incompatibletest2","attributeA","18","1","804",TRUE
290,"5","28","incompatibletest2","targetAright","23","1","842",TRUE
290,"5","29","incompatibletest2","attributeB","23","1","779",TRUE
290,"5","30","incompatibletest2","targetAright","23","1","664",TRUE
290,"5","31","incompatibletest2","attributeB","23","1","784",TRUE
290,"5","32","incompatibletest2","targetBleft","18","1","725",TRUE
290,"5","33","incompatibletest2","attributeA","18","1","739",TRUE
290,"5","34","incompatibletest2","targetBleft","18","1","642",TRUE
290,"5","35","incompatibletest2","attributeA","18","1","625",TRUE
290,"5","36","incompatibletest2","targetAright","23","1","677",TRUE
290,"5","37","incompatibletest2","attributeB","23","1","630",TRUE
290,"5","38","incompatibletest2","targetBleft","18","1","651",TRUE
290,"5","39","incompatibletest2","attributeB","23","1","593",TRUE
290,"5","40","incompatibletest2","targetBleft","18","1","573",TRUE
290,"6","2","targetcompatiblepractice","targetBright","23","1","2811",TRUE
290,"6","3","targetcompatiblepractice","targetBright","23","1","693",TRUE
290,"6","4","targetcompatiblepractice","targetAleft","18","1","660",TRUE
290,"6","5","targetcompatiblepractice","targetBright","23","1","567",TRUE
290,"6","6","targetcompatiblepractice","targetBright","23","1","577",TRUE
290,"6","7","targetcompatiblepractice","targetAleft","18","1","629",TRUE
290,"6","8","targetcompatiblepractice","targetAleft","18","1","552",TRUE
290,"6","9","targetcompatiblepractice","targetAleft","18","1","599",TRUE
290,"6","10","targetcompatiblepractice","targetAleft","18","1","647",TRUE
290,"6","11","targetcompatiblepractice","targetAleft","18","1","608",TRUE
290,"6","12","targetcompatiblepractice","targetAleft","18","1","599",TRUE
290,"6","13","targetcompatiblepractice","targetAleft","18","1","575",TRUE
290,"6","14","targetcompatiblepractice","targetBright","23","1","528",TRUE
290,"6","15","targetcompatiblepractice","targetAleft","18","1","656",TRUE
290,"6","16","targetcompatiblepractice","targetBright","23","1","619",TRUE
290,"6","17","targetcompatiblepractice","targetBright","23","1","579",TRUE
290,"6","18","targetcompatiblepractice","targetAleft","18","1","723",TRUE
290,"6","19","targetcompatiblepractice","targetBright","23","1","615",TRUE
290,"6","20","targetcompatiblepractice","targetBright","23","1","597",TRUE
290,"6","21","targetcompatiblepractice","targetBright","23","1","582",TRUE
290,"7","2","compatibletest1","attributeA","18","1","981",TRUE
290,"7","3","compatibletest1","targetAleft","18","1","589",TRUE
290,"7","4","compatibletest1","attributeB","23","1","613",TRUE
290,"7","5","compatibletest1","targetAleft","18","1","592",TRUE
290,"7","6","compatibletest1","attributeB","23","1","822",TRUE
290,"7","7","compatibletest1","targetBright","23","1","556",TRUE
290,"7","8","compatibletest1","attributeA","18","1","586",TRUE
290,"7","9","compatibletest1","targetAleft","18","1","660",TRUE
290,"7","10","compatibletest1","attributeB","23","1","618",TRUE
290,"7","11","compatibletest1","targetAleft","18","1","633",TRUE
290,"7","12","compatibletest1","attributeA","18","1","750",TRUE
290,"7","13","compatibletest1","targetAleft","18","1","598",TRUE
290,"7","14","compatibletest1","attributeB","23","1","515",TRUE
290,"7","15","compatibletest1","targetBright","23","1","1285",TRUE
290,"7","16","compatibletest1","attributeA","18","1","568",TRUE
290,"7","17","compatibletest1","targetBright","23","1","588",TRUE
290,"7","18","compatibletest1","attributeB","23","1","885",TRUE
290,"7","19","compatibletest1","targetBright","23","1","572",TRUE
290,"7","20","compatibletest1","attributeA","18","1","682",TRUE
290,"7","21","compatibletest1","targetBright","23","1","727",TRUE
290,"9","1","compatibletest2","attributeB","23","1","1585",TRUE
290,"9","2","compatibletest2","targetBright","23","1","605",TRUE
290,"9","3","compatibletest2","attributeB","23","1","663",TRUE
290,"9","4","compatibletest2","targetAleft","18","1","592",TRUE
290,"9","5","compatibletest2","attributeA","18","1","598",TRUE
290,"9","6","compatibletest2","targetBright","23","1","533",TRUE
290,"9","7","compatibletest2","attributeB","23","1","537",TRUE
290,"9","8","compatibletest2","targetAleft","18","1","615",TRUE
290,"9","9","compatibletest2","attributeA","18","1","547",TRUE
290,"9","10","compatibletest2","targetAleft","18","1","591",TRUE
290,"9","11","compatibletest2","attributeB","23","1","603",TRUE
290,"9","12","compatibletest2","targetAleft","18","1","793",TRUE
290,"9","13","compatibletest2","attributeB","23","1","974",TRUE
290,"9","14","compatibletest2","targetAleft","18","1","979",TRUE
290,"9","15","compatibletest2","attributeA","18","1","701",TRUE
290,"9","16","compatibletest2","targetBright","23","1","586",TRUE
290,"9","17","compatibletest2","attributeA","18","1","696",TRUE
290,"9","18","compatibletest2","targetAleft","18","1","652",TRUE
290,"9","19","compatibletest2","attributeA","18","1","591",TRUE
290,"9","20","compatibletest2","targetBright","23","1","548",TRUE
290,"9","21","compatibletest2","attributeA","18","1","581",TRUE
290,"9","22","compatibletest2","targetBright","23","1","608",TRUE
290,"9","23","compatibletest2","attributeB","23","1","2738",TRUE
290,"9","24","compatibletest2","targetAleft","18","1","638",TRUE
290,"9","25","compatibletest2","attributeA","18","1","511",TRUE
290,"9","26","compatibletest2","targetBright","23","1","540",TRUE
290,"9","27","compatibletest2","attributeA","18","1","710",TRUE
290,"9","28","compatibletest2","targetAleft","18","1","618",TRUE
290,"9","29","compatibletest2","attributeA","18","1","605",TRUE
290,"9","30","compatibletest2","targetBright","23","1","599",TRUE
290,"9","31","compatibletest2","attributeB","23","1","587",TRUE
290,"9","32","compatibletest2","targetAleft","18","1","704",TRUE
290,"9","33","compatibletest2","attributeB","23","1","636",TRUE
290,"9","34","compatibletest2","targetBright","23","0","1501",TRUE
290,"9","35","compatibletest2","attributeB","23","1","1377",TRUE
290,"9","36","compatibletest2","targetBright","23","0","984",TRUE
290,"9","37","compatibletest2","attributeA","18","1","684",TRUE
290,"9","38","compatibletest2","targetBright","23","1","698",TRUE
290,"9","39","compatibletest2","attributeB","23","1","664",TRUE
290,"9","40","compatibletest2","targetAleft","18","1","609",TRUE
282,"1","2","targetincompatiblepractice","targetAright","23","1","1272",TRUE
282,"1","3","targetincompatiblepractice","targetBleft","18","1","669",TRUE
282,"1","4","targetincompatiblepractice","targetBleft","18","1","766",TRUE
282,"1","5","targetincompatiblepractice","targetAright","23","1","661",TRUE
282,"1","6","targetincompatiblepractice","targetAright","23","1","646",TRUE
282,"1","7","targetincompatiblepractice","targetAright","23","1","724",TRUE
282,"1","8","targetincompatiblepractice","targetBleft","18","1","688",TRUE
282,"1","9","targetincompatiblepractice","targetBleft","18","1","627",TRUE
282,"1","10","targetincompatiblepractice","targetBleft","18","1","739",TRUE
282,"1","11","targetincompatiblepractice","targetBleft","18","1","693",TRUE
282,"1","12","targetincompatiblepractice","targetAright","23","1","687",TRUE
282,"1","13","targetincompatiblepractice","targetBleft","18","1","802",TRUE
282,"1","14","targetincompatiblepractice","targetAright","23","1","833",TRUE
282,"1","15","targetincompatiblepractice","targetBleft","18","1","644",TRUE
282,"1","16","targetincompatiblepractice","targetAright","23","1","862",TRUE
282,"1","17","targetincompatiblepractice","targetAright","23","1","695",TRUE
282,"1","18","targetincompatiblepractice","targetAright","23","1","678",TRUE
282,"1","19","targetincompatiblepractice","targetBleft","18","1","670",TRUE
282,"1","20","targetincompatiblepractice","targetBleft","18","1","615",TRUE
282,"1","21","targetincompatiblepractice","targetAright","23","1","735",TRUE
282,"2","2","attributepractice","attributeA","18","1","1110",TRUE
282,"2","3","attributepractice","attributeB","23","1","636",TRUE
282,"2","4","attributepractice","attributeA","18","1","1181",TRUE
282,"2","5","attributepractice","attributeA","18","1","568",TRUE
282,"2","6","attributepractice","attributeB","23","1","593",TRUE
282,"2","7","attributepractice","attributeA","18","1","774",TRUE
282,"2","8","attributepractice","attributeA","18","1","1140",TRUE
282,"2","9","attributepractice","attributeB","23","1","1093",TRUE
282,"2","10","attributepractice","attributeB","23","1","526",TRUE
282,"2","11","attributepractice","attributeA","18","1","540",TRUE
282,"2","12","attributepractice","attributeB","23","1","518",TRUE
282,"2","13","attributepractice","attributeA","18","1","626",TRUE
282,"2","14","attributepractice","attributeB","23","1","743",TRUE
282,"2","15","attributepractice","attributeA","18","1","688",TRUE
282,"2","16","attributepractice","attributeB","23","1","588",TRUE
282,"2","17","attributepractice","attributeA","18","1","587",TRUE
282,"2","18","attributepractice","attributeA","18","1","520",TRUE
282,"2","19","attributepractice","attributeB","23","1","504",TRUE
282,"2","20","attributepractice","attributeB","23","1","445",TRUE
282,"2","21","attributepractice","attributeB","23","1","457",TRUE
282,"3","2","incompatibletest1","attributeB","23","1","846",TRUE
282,"3","3","incompatibletest1","targetAright","23","1","921",TRUE
282,"3","4","incompatibletest1","attributeA","18","1","888",TRUE
282,"3","5","incompatibletest1","targetAright","23","1","700",TRUE
282,"3","6","incompatibletest1","attributeA","18","1","940",TRUE
282,"3","7","incompatibletest1","targetAright","23","1","1260",TRUE
282,"3","8","incompatibletest1","attributeB","23","1","1421",TRUE
282,"3","9","incompatibletest1","targetBleft","18","1","860",TRUE
282,"3","10","incompatibletest1","attributeB","23","1","1161",TRUE
282,"3","11","incompatibletest1","targetBleft","18","1","1091",TRUE
282,"3","12","incompatibletest1","attributeA","18","1","2334",TRUE
282,"3","13","incompatibletest1","targetAright","23","1","767",TRUE
282,"3","14","incompatibletest1","attributeB","23","1","1264",TRUE
282,"3","15","incompatibletest1","targetBleft","18","1","851",TRUE
282,"3","16","incompatibletest1","attributeB","23","1","1275",TRUE
282,"3","17","incompatibletest1","targetAright","23","1","826",TRUE
282,"3","18","incompatibletest1","attributeA","18","1","1826",TRUE
282,"3","19","incompatibletest1","targetBleft","18","1","1674",TRUE
282,"3","20","incompatibletest1","attributeA","18","1","928",TRUE
282,"3","21","incompatibletest1","targetBleft","18","1","930",TRUE
282,"5","1","incompatibletest2","attributeB","23","1","2202",TRUE
282,"5","2","incompatibletest2","targetBleft","18","1","638",TRUE
282,"5","3","incompatibletest2","attributeB","23","1","686",TRUE
282,"5","4","incompatibletest2","targetBleft","18","1","1025",TRUE
282,"5","5","incompatibletest2","attributeA","18","1","851",TRUE
282,"5","6","incompatibletest2","targetBleft","18","1","684",TRUE
282,"5","7","incompatibletest2","attributeA","18","1","993",TRUE
282,"5","8","incompatibletest2","targetAright","23","1","738",TRUE
282,"5","9","incompatibletest2","attributeB","23","1","1754",TRUE
282,"5","10","incompatibletest2","targetBleft","18","1","730",TRUE
282,"5","11","incompatibletest2","attributeB","23","1","1496",TRUE
282,"5","12","incompatibletest2","targetBleft","18","1","883",TRUE
282,"5","13","incompatibletest2","attributeA","18","1","1932",TRUE
282,"5","14","incompatibletest2","targetBleft","18","1","948",TRUE
282,"5","15","incompatibletest2","attributeB","23","1","1207",TRUE
282,"5","16","incompatibletest2","targetAright","23","1","656",TRUE
282,"5","17","incompatibletest2","attributeB","23","1","617",TRUE
282,"5","18","incompatibletest2","targetAright","23","1","643",TRUE
282,"5","19","incompatibletest2","attributeA","18","1","734",TRUE
282,"5","20","incompatibletest2","targetAright","23","1","611",TRUE
282,"5","21","incompatibletest2","attributeB","23","0","2878",TRUE
282,"5","22","incompatibletest2","targetBleft","18","1","1791",TRUE
282,"5","23","incompatibletest2","attributeB","23","0","1484",TRUE
282,"5","24","incompatibletest2","targetAright","23","1","871",TRUE
282,"5","25","incompatibletest2","attributeB","23","1","1127",TRUE
282,"5","26","incompatibletest2","targetAright","23","1","618",TRUE
282,"5","27","incompatibletest2","attributeA","18","1","787",TRUE
282,"5","28","incompatibletest2","targetBleft","18","1","975",TRUE
282,"5","29","incompatibletest2","attributeA","18","1","1587",TRUE
282,"5","30","incompatibletest2","targetAright","23","1","936",TRUE
282,"5","31","incompatibletest2","attributeA","18","1","699",TRUE
282,"5","32","incompatibletest2","targetAright","23","1","1017",TRUE
282,"5","33","incompatibletest2","attributeA","18","0","1630",TRUE
282,"5","34","incompatibletest2","targetAright","23","1","797",TRUE
282,"5","35","incompatibletest2","attributeA","18","1","1583",TRUE
282,"5","36","incompatibletest2","targetAright","23","1","1168",TRUE
282,"5","37","incompatibletest2","attributeB","23","1","2013",TRUE
282,"5","38","incompatibletest2","targetBleft","18","1","856",TRUE
282,"5","39","incompatibletest2","attributeA","18","1","1029",TRUE
282,"5","40","incompatibletest2","targetBleft","18","1","635",TRUE
282,"6","2","targetcompatiblepractice","targetAleft","18","1","984",TRUE
282,"6","3","targetcompatiblepractice","targetAleft","18","1","568",TRUE
282,"6","4","targetcompatiblepractice","targetBright","23","1","538",TRUE
282,"6","5","targetcompatiblepractice","targetAleft","18","1","582",TRUE
282,"6","6","targetcompatiblepractice","targetAleft","18","1","601",TRUE
282,"6","7","targetcompatiblepractice","targetBright","23","1","598",TRUE
282,"6","8","targetcompatiblepractice","targetBright","23","1","586",TRUE
282,"6","9","targetcompatiblepractice","targetAleft","18","1","580",TRUE
282,"6","10","targetcompatiblepractice","targetAleft","18","1","549",TRUE
282,"6","11","targetcompatiblepractice","targetAleft","18","1","647",TRUE
282,"6","12","targetcompatiblepractice","targetBright","23","1","518",TRUE
282,"6","13","targetcompatiblepractice","targetBright","23","1","535",TRUE
282,"6","14","targetcompatiblepractice","targetAleft","18","1","644",TRUE
282,"6","15","targetcompatiblepractice","targetBright","23","1","641",TRUE
282,"6","16","targetcompatiblepractice","targetAleft","18","1","620",TRUE
282,"6","17","targetcompatiblepractice","targetBright","23","1","548",TRUE
282,"6","18","targetcompatiblepractice","targetAleft","18","1","623",TRUE
282,"6","19","targetcompatiblepractice","targetBright","23","1","580",TRUE
282,"6","20","targetcompatiblepractice","targetBright","23","1","574",TRUE
282,"6","21","targetcompatiblepractice","targetBright","23","1","597",TRUE
282,"7","2","compatibletest1","attributeA","18","1","997",TRUE
282,"7","3","compatibletest1","targetAleft","18","1","622",TRUE
282,"7","4","compatibletest1","attributeA","18","1","545",TRUE
282,"7","5","compatibletest1","targetBright","23","1","602",TRUE
282,"7","6","compatibletest1","attributeB","23","1","546",TRUE
282,"7","7","compatibletest1","targetBright","23","1","567",TRUE
282,"7","8","compatibletest1","attributeB","23","1","560",TRUE
282,"7","9","compatibletest1","targetAleft","18","1","734",TRUE
282,"7","10","compatibletest1","attributeA","18","1","681",TRUE
282,"7","11","compatibletest1","targetAleft","18","1","624",TRUE
282,"7","12","compatibletest1","attributeA","18","1","592",TRUE
282,"7","13","compatibletest1","targetBright","23","1","647",TRUE
282,"7","14","compatibletest1","attributeB","23","1","608",TRUE
282,"7","15","compatibletest1","targetAleft","18","1","673",TRUE
282,"7","16","compatibletest1","attributeA","18","1","567",TRUE
282,"7","17","compatibletest1","targetBright","23","1","614",TRUE
282,"7","18","compatibletest1","attributeB","23","1","686",TRUE
282,"7","19","compatibletest1","targetAleft","18","1","686",TRUE
282,"7","20","compatibletest1","attributeB","23","1","681",TRUE
282,"7","21","compatibletest1","targetBright","23","1","729",TRUE
282,"9","1","compatibletest2","attributeA","18","1","1186",TRUE
282,"9","2","compatibletest2","targetBright","23","1","903",TRUE
282,"9","3","compatibletest2","attributeA","18","1","893",TRUE
282,"9","4","compatibletest2","targetAleft","18","1","510",TRUE
282,"9","5","compatibletest2","attributeB","23","1","630",TRUE
282,"9","6","compatibletest2","targetAleft","18","1","1750",TRUE
282,"9","7","compatibletest2","attributeB","23","1","1477",TRUE
282,"9","8","compatibletest2","targetBright","23","1","603",TRUE
282,"9","9","compatibletest2","attributeB","23","1","577",TRUE
282,"9","10","compatibletest2","targetBright","23","1","517",TRUE
282,"9","11","compatibletest2","attributeB","23","1","594",TRUE
282,"9","12","compatibletest2","targetAleft","18","1","542",TRUE
282,"9","13","compatibletest2","attributeB","23","1","534",TRUE
282,"9","14","compatibletest2","targetBright","23","1","557",TRUE
282,"9","15","compatibletest2","attributeA","18","1","1222",TRUE
282,"9","16","compatibletest2","targetBright","23","1","635",TRUE
282,"9","17","compatibletest2","attributeB","23","1","716",TRUE
282,"9","18","compatibletest2","targetBright","23","1","694",TRUE
282,"9","19","compatibletest2","attributeA","18","1","607",TRUE
282,"9","20","compatibletest2","targetAleft","18","1","514",TRUE
282,"9","21","compatibletest2","attributeA","18","1","558",TRUE
282,"9","22","compatibletest2","targetAleft","18","1","509",TRUE
282,"9","23","compatibletest2","attributeB","23","1","942",TRUE
282,"9","24","compatibletest2","targetAleft","18","1","592",TRUE
282,"9","25","compatibletest2","attributeA","18","1","1091",TRUE
282,"9","26","compatibletest2","targetBright","23","1","528",TRUE
282,"9","27","compatibletest2","attributeB","23","1","1023",TRUE
282,"9","28","compatibletest2","targetAleft","18","1","863",TRUE
282,"9","29","compatibletest2","attributeA","18","1","643",TRUE
282,"9","30","compatibletest2","targetBright","23","1","577",TRUE
282,"9","31","compatibletest2","attributeA","18","1","699",TRUE
282,"9","32","compatibletest2","targetBright","23","1","705",TRUE
282,"9","33","compatibletest2","attributeB","23","1","856",TRUE
282,"9","34","compatibletest2","targetAleft","18","1","699",TRUE
282,"9","35","compatibletest2","attributeB","23","1","647",TRUE
282,"9","36","compatibletest2","targetAleft","18","1","653",TRUE
282,"9","37","compatibletest2","attributeA","18","1","674",TRUE
282,"9","38","compatibletest2","targetAleft","18","1","874",TRUE
282,"9","39","compatibletest2","attributeA","18","1","611",TRUE
282,"9","40","compatibletest2","targetBright","23","1","598",TRUE
288,"1","2","targetincompatiblepractice","targetBleft","18","1","1674",TRUE
288,"1","3","targetincompatiblepractice","targetBleft","18","1","744",TRUE
288,"1","4","targetincompatiblepractice","targetBleft","18","1","475",TRUE
288,"1","5","targetincompatiblepractice","targetAright","23","1","662",TRUE
288,"1","6","targetincompatiblepractice","targetBleft","18","1","650",TRUE
288,"1","7","targetincompatiblepractice","targetBleft","18","0","1701",TRUE
288,"1","8","targetincompatiblepractice","targetBleft","18","1","555",TRUE
288,"1","9","targetincompatiblepractice","targetAright","23","1","466",TRUE
288,"1","10","targetincompatiblepractice","targetBleft","18","1","648",TRUE
288,"1","11","targetincompatiblepractice","targetBleft","18","1","573",TRUE
288,"1","12","targetincompatiblepractice","targetAright","23","1","472",TRUE
288,"1","13","targetincompatiblepractice","targetAright","23","1","441",TRUE
288,"1","14","targetincompatiblepractice","targetAright","23","1","416",TRUE
288,"1","15","targetincompatiblepractice","targetAright","23","1","394",TRUE
288,"1","16","targetincompatiblepractice","targetAright","23","1","362",TRUE
288,"1","17","targetincompatiblepractice","targetBleft","18","0","934",TRUE
288,"1","18","targetincompatiblepractice","targetAright","23","1","654",TRUE
288,"1","19","targetincompatiblepractice","targetAright","23","1","695",TRUE
288,"1","20","targetincompatiblepractice","targetAright","23","1","418",TRUE
288,"1","21","targetincompatiblepractice","targetBleft","18","1","489",TRUE
288,"2","2","attributepractice","attributeB","23","1","1217",TRUE
288,"2","3","attributepractice","attributeB","23","1","900",TRUE
288,"2","4","attributepractice","attributeB","23","1","1000",TRUE
288,"2","5","attributepractice","attributeB","23","1","635",TRUE
288,"2","6","attributepractice","attributeA","18","1","746",TRUE
288,"2","7","attributepractice","attributeA","18","1","590",TRUE
288,"2","8","attributepractice","attributeA","18","1","499",TRUE
288,"2","9","attributepractice","attributeB","23","1","563",TRUE
288,"2","10","attributepractice","attributeA","18","1","548",TRUE
288,"2","11","attributepractice","attributeB","23","1","1232",TRUE
288,"2","12","attributepractice","attributeA","18","1","603",TRUE
288,"2","13","attributepractice","attributeA","18","1","603",TRUE
288,"2","14","attributepractice","attributeB","23","1","599",TRUE
288,"2","15","attributepractice","attributeB","23","1","731",TRUE
288,"2","16","attributepractice","attributeA","18","1","538",TRUE
288,"2","17","attributepractice","attributeA","18","1","654",TRUE
288,"2","18","attributepractice","attributeA","18","1","593",TRUE
288,"2","19","attributepractice","attributeB","23","1","764",TRUE
288,"2","20","attributepractice","attributeA","18","1","638",TRUE
288,"2","21","attributepractice","attributeB","23","1","683",TRUE
288,"3","2","incompatibletest1","attributeA","18","1","1420",TRUE
288,"3","3","incompatibletest1","targetAright","23","1","898",TRUE
288,"3","4","incompatibletest1","attributeB","23","1","846",TRUE
288,"3","5","incompatibletest1","targetAright","23","1","633",TRUE
288,"3","6","incompatibletest1","attributeA","18","1","824",TRUE
288,"3","7","incompatibletest1","targetAright","23","1","630",TRUE
288,"3","8","incompatibletest1","attributeB","23","1","574",TRUE
288,"3","9","incompatibletest1","targetBleft","18","1","547",TRUE
288,"3","10","incompatibletest1","attributeA","18","1","1024",TRUE
288,"3","11","incompatibletest1","targetBleft","18","1","756",TRUE
288,"3","12","incompatibletest1","attributeA","18","1","664",TRUE
288,"3","13","incompatibletest1","targetBleft","18","1","545",TRUE
288,"3","14","incompatibletest1","attributeB","23","1","653",TRUE
288,"3","15","incompatibletest1","targetAright","23","1","529",TRUE
288,"3","16","incompatibletest1","attributeA","18","1","658",TRUE
288,"3","17","incompatibletest1","targetAright","23","1","571",TRUE
288,"3","18","incompatibletest1","attributeB","23","1","861",TRUE
288,"3","19","incompatibletest1","targetBleft","18","1","605",TRUE
288,"3","20","incompatibletest1","attributeB","23","1","705",TRUE
288,"3","21","incompatibletest1","targetBleft","18","1","751",TRUE
288,"5","1","incompatibletest2","attributeA","18","1","831",TRUE
288,"5","2","incompatibletest2","targetBleft","18","0","1554",TRUE
288,"5","3","incompatibletest2","attributeB","23","1","663",TRUE
288,"5","4","incompatibletest2","targetAright","23","1","602",TRUE
288,"5","5","incompatibletest2","attributeA","18","1","726",TRUE
288,"5","6","incompatibletest2","targetAright","23","1","674",TRUE
288,"5","7","incompatibletest2","attributeA","18","1","681",TRUE
288,"5","8","incompatibletest2","targetBleft","18","1","637",TRUE
288,"5","9","incompatibletest2","attributeB","23","1","644",TRUE
288,"5","10","incompatibletest2","targetBleft","18","1","576",TRUE
288,"5","11","incompatibletest2","attributeB","23","0","1466",TRUE
288,"5","12","incompatibletest2","targetBleft","18","1","560",TRUE
288,"5","13","incompatibletest2","attributeB","23","1","718",TRUE
288,"5","14","incompatibletest2","targetBleft","18","1","653",TRUE
288,"5","15","incompatibletest2","attributeA","18","1","661",TRUE
288,"5","16","incompatibletest2","targetBleft","18","1","558",TRUE
288,"5","17","incompatibletest2","attributeB","23","1","591",TRUE
288,"5","18","incompatibletest2","targetAright","23","1","591",TRUE
288,"5","19","incompatibletest2","attributeA","18","1","569",TRUE
288,"5","20","incompatibletest2","targetAright","23","1","685",TRUE
288,"5","21","incompatibletest2","attributeB","23","1","702",TRUE
288,"5","22","incompatibletest2","targetAright","23","1","602",TRUE
288,"5","23","incompatibletest2","attributeA","18","1","710",TRUE
288,"5","24","incompatibletest2","targetAright","23","1","647",TRUE
288,"5","25","incompatibletest2","attributeA","18","1","605",TRUE
288,"5","26","incompatibletest2","targetAright","23","1","667",TRUE
288,"5","27","incompatibletest2","attributeA","18","1","583",TRUE
288,"5","28","incompatibletest2","targetBleft","18","1","584",TRUE
288,"5","29","incompatibletest2","attributeB","23","1","601",TRUE
288,"5","30","incompatibletest2","targetBleft","18","1","574",TRUE
288,"5","31","incompatibletest2","attributeA","18","1","900",TRUE
288,"5","32","incompatibletest2","targetAright","23","1","546",TRUE
288,"5","33","incompatibletest2","attributeB","23","1","730",TRUE
288,"5","34","incompatibletest2","targetAright","23","1","1242",TRUE
288,"5","35","incompatibletest2","attributeA","18","1","570",TRUE
288,"5","36","incompatibletest2","targetBleft","18","1","679",TRUE
288,"5","37","incompatibletest2","attributeB","23","1","537",TRUE
288,"5","38","incompatibletest2","targetAright","23","0","825",TRUE
288,"5","39","incompatibletest2","attributeB","23","1","625",TRUE
288,"5","40","incompatibletest2","targetBleft","18","0","1340",TRUE
288,"6","2","targetcompatiblepractice","targetBright","23","1","1655",TRUE
288,"6","3","targetcompatiblepractice","targetBright","23","1","503",TRUE
288,"6","4","targetcompatiblepractice","targetBright","23","1","517",TRUE
288,"6","5","targetcompatiblepractice","targetAleft","18","1","544",TRUE
288,"6","6","targetcompatiblepractice","targetAleft","18","1","491",TRUE
288,"6","7","targetcompatiblepractice","targetAleft","18","1","382",TRUE
288,"6","8","targetcompatiblepractice","targetAleft","18","1","394",TRUE
288,"6","9","targetcompatiblepractice","targetAleft","18","1","389",TRUE
288,"6","10","targetcompatiblepractice","targetBright","23","0","683",TRUE
288,"6","11","targetcompatiblepractice","targetBright","23","1","501",TRUE
288,"6","12","targetcompatiblepractice","targetAleft","18","1","467",TRUE
288,"6","13","targetcompatiblepractice","targetAleft","18","1","384",TRUE
288,"6","14","targetcompatiblepractice","targetBright","23","0","669",TRUE
288,"6","15","targetcompatiblepractice","targetAleft","18","1","738",TRUE
288,"6","16","targetcompatiblepractice","targetAleft","18","1","399",TRUE
288,"6","17","targetcompatiblepractice","targetAleft","18","1","368",TRUE
288,"6","18","targetcompatiblepractice","targetBright","23","1","488",TRUE
288,"6","19","targetcompatiblepractice","targetBright","23","1","489",TRUE
288,"6","20","targetcompatiblepractice","targetBright","23","1","570",TRUE
288,"6","21","targetcompatiblepractice","targetBright","23","1","414",TRUE
288,"7","2","compatibletest1","attributeA","18","1","1239",TRUE
288,"7","3","compatibletest1","targetBright","23","1","677",TRUE
288,"7","4","compatibletest1","attributeA","18","1","995",TRUE
288,"7","5","compatibletest1","targetAleft","18","0","1293",TRUE
288,"7","6","compatibletest1","attributeA","18","1","803",TRUE
288,"7","7","compatibletest1","targetBright","23","1","578",TRUE
288,"7","8","compatibletest1","attributeB","23","1","786",TRUE
288,"7","9","compatibletest1","targetBright","23","1","779",TRUE
288,"7","10","compatibletest1","attributeB","23","1","778",TRUE
288,"7","11","compatibletest1","targetAleft","18","1","534",TRUE
288,"7","12","compatibletest1","attributeB","23","0","694",TRUE
288,"7","13","compatibletest1","targetAleft","18","0","924",TRUE
288,"7","14","compatibletest1","attributeB","23","1","591",TRUE
288,"7","15","compatibletest1","targetBright","23","1","1247",TRUE
288,"7","16","compatibletest1","attributeA","18","1","570",TRUE
288,"7","17","compatibletest1","targetBright","23","1","752",TRUE
288,"7","18","compatibletest1","attributeA","18","1","744",TRUE
288,"7","19","compatibletest1","targetAleft","18","1","707",TRUE
288,"7","20","compatibletest1","attributeB","23","1","583",TRUE
288,"7","21","compatibletest1","targetAleft","18","1","597",TRUE
288,"9","1","compatibletest2","attributeA","18","1","706",TRUE
288,"9","2","compatibletest2","targetBright","23","1","571",TRUE
288,"9","3","compatibletest2","attributeA","18","1","640",TRUE
288,"9","4","compatibletest2","targetAleft","18","1","544",TRUE
288,"9","5","compatibletest2","attributeA","18","1","582",TRUE
288,"9","6","compatibletest2","targetBright","23","1","471",TRUE
288,"9","7","compatibletest2","attributeA","18","1","677",TRUE
288,"9","8","compatibletest2","targetBright","23","1","592",TRUE
288,"9","9","compatibletest2","attributeA","18","1","541",TRUE
288,"9","10","compatibletest2","targetAleft","18","1","696",TRUE
288,"9","11","compatibletest2","attributeB","23","1","563",TRUE
288,"9","12","compatibletest2","targetAleft","18","1","712",TRUE
288,"9","13","compatibletest2","attributeB","23","1","494",TRUE
288,"9","14","compatibletest2","targetAleft","18","0","898",TRUE
288,"9","15","compatibletest2","attributeB","23","0","1270",TRUE
288,"9","16","compatibletest2","targetBright","23","0","1076",TRUE
288,"9","17","compatibletest2","attributeA","18","1","587",TRUE
288,"9","18","compatibletest2","targetBright","23","1","629",TRUE
288,"9","19","compatibletest2","attributeB","23","1","968",TRUE
288,"9","20","compatibletest2","targetAleft","18","1","551",TRUE
288,"9","21","compatibletest2","attributeB","23","1","804",TRUE
288,"9","22","compatibletest2","targetBright","23","0","1395",TRUE
288,"9","23","compatibletest2","attributeA","18","1","620",TRUE
288,"9","24","compatibletest2","targetAleft","18","1","545",TRUE
288,"9","25","compatibletest2","attributeA","18","1","588",TRUE
288,"9","26","compatibletest2","targetBright","23","1","579",TRUE
288,"9","27","compatibletest2","attributeB","23","1","689",TRUE
288,"9","28","compatibletest2","targetBright","23","1","643",TRUE
288,"9","29","compatibletest2","attributeB","23","1","650",TRUE
288,"9","30","compatibletest2","targetAleft","18","1","613",TRUE
288,"9","31","compatibletest2","attributeA","18","1","752",TRUE
288,"9","32","compatibletest2","targetAleft","18","1","720",TRUE
288,"9","33","compatibletest2","attributeB","23","1","684",TRUE
