"date","time","subject","blockcode","blocknum","trialcode","trialnum","values.primestim","values.targetstim","response","correct","latency","trial.primeRace.totalpercentcorrect","trial.primeNeutral.totalpercentcorrect"
"032217","19:59:32","481","AMP_practice","1","primeNeutralpractice","4","0","0","23","1","2678","0","0"
"032217","19:59:32","481","AMP_practice","1","primeRacepractice","5","0","0","23","0","1102","0","0"
"032217","19:59:32","481","AMP_practice","1","primeNeutralpractice","6","0","0","23","1","1466","0","0"
"032217","19:59:32","481","AMP_practice","1","primeNeutralpractice","7","0","0","23","1","731","0","0"
"032217","19:59:32","481","AMP_practice","1","primeNeutralpractice","8","0","0","18","1","747","0","0"
"032217","19:59:32","481","AMP_practice","1","primeRacepractice","9","0","0","18","1","884","0","0"
"032217","19:59:32","481","AMP_practice","1","primeRacepractice","10","0","0","23","0","788","0","0"
"032217","19:59:32","481","AMP_practice","1","primeNeutralpractice","11","0","0","23","1","616","0","0"
"032217","19:59:32","481","AMP_practice","1","primeRacepractice","12","0","0","23","0","602","0","0"
"032217","19:59:32","481","AMP_practice","1","primeRacepractice","13","0","0","23","0","680","0","0"
"032217","19:59:32","481","AMP_test","2","primeRace","2","2","4","23","1","716","100","0"
"032217","19:59:32","481","AMP_test","2","primeRace","3","6","16","23","1","572","100","0"
"032217","19:59:32","481","AMP_test","2","primeNeutral","4","1","2","18","0","667","100","0"
"032217","19:59:32","481","AMP_test","2","primeRace","5","2","11","23","1","992","100","0"
"032217","19:59:32","481","AMP_test","2","primeNeutral","6","1","1","18","0","591","100","0"
"032217","19:59:32","481","AMP_test","2","primeRace","7","4","9","23","1","493","100","0"
"032217","19:59:32","481","AMP_test","2","primeNeutral","8","1","14","18","0","581","100","0"
"032217","19:59:32","481","AMP_test","2","primeNeutral","9","1","13","23","1","505","100","25"
"032217","19:59:32","481","AMP_test","2","primeRace","10","3","7","23","1","642","100","25"
"032217","19:59:32","481","AMP_test","2","primeRace","11","5","10","23","1","599","100","25"
"032217","19:59:32","481","AMP_test","2","primeRace","12","1","1","18","0","773","85","25"
"032217","19:59:32","481","AMP_test","2","primeRace","13","2","14","18","0","558","75","25"
"032217","19:59:32","481","AMP_test","2","primeNeutral","14","1","7","23","1","459","75","40"
"032217","19:59:32","481","AMP_test","2","primeRace","15","5","10","23","1","615","77","40"
"032217","19:59:32","481","AMP_test","2","primeNeutral","16","1","15","23","1","566","77","50"
"032217","19:59:32","481","AMP_test","2","primeNeutral","17","1","2","18","0","591","77","42"
"032217","19:59:32","481","AMP_test","2","primeRace","18","1","6","18","0","634","70","42"
"032217","19:59:32","481","AMP_test","2","primeNeutral","19","1","11","23","1","376","70","50"
"032217","19:59:32","481","AMP_test","2","primeRace","20","3","13","23","1","445","72","50"
"032217","19:59:32","481","AMP_test","2","primeRace","21","4","4","18","0","523","66","50"
"032217","19:59:32","481","AMP_test","2","primeRace","22","6","12","18","0","738","61","50"
"032217","19:59:32","481","AMP_test","2","primeRace","23","1","18","18","0","681","57","50"
"032217","19:59:32","481","AMP_test","2","primeRace","24","3","5","23","1","400","60","50"
"032217","19:59:32","481","AMP_test","2","primeNeutral","25","1","16","18","0","697","60","44"
"032217","19:59:32","481","AMP_test","2","primeRace","26","4","19","23","1","389","62","44"
"032217","19:59:32","481","AMP_test","2","primeRace","27","2","20","23","1","577","64","44"
"032217","19:59:32","481","AMP_test","2","primeRace","28","6","3","23","1","501","66","44"
"032217","19:59:32","481","AMP_test","2","primeNeutral","29","1","17","23","1","839","66","50"
"032217","19:59:32","481","AMP_test","2","primeNeutral","30","1","8","23","1","766","66","54"
"032217","19:59:32","481","AMP_test","2","primeRace","31","5","9","23","1","548","68","54"
"032217","19:59:32","481","AMP_test","2","primeRace","32","4","7","18","0","676","65","54"
"032217","19:59:32","481","AMP_test","2","primeNeutral","33","1","16","23","1","469","65","58"
"032217","19:59:32","481","AMP_test","2","primeNeutral","34","1","8","23","1","510","65","61"
"032217","19:59:32","481","AMP_test","2","primeNeutral","35","1","20","18","0","600","65","57"
"032217","19:59:32","481","AMP_test","2","primeRace","36","5","11","23","1","412","66","57"
"032217","19:59:32","481","AMP_test","2","primeNeutral","37","1","2","23","1","728","66","60"
"032217","19:59:32","481","AMP_test","2","primeRace","38","6","17","23","1","542","68","60"
"032217","19:59:32","481","AMP_test","2","primeNeutral","39","1","18","23","1","831","68","62"
"032217","19:59:32","481","AMP_test","2","primeNeutral","40","1","9","23","1","535","68","64"
"032217","19:59:32","481","AMP_test","2","primeRace","41","2","10","23","1","714","69","64"
"032217","19:59:32","481","AMP_test","2","primeRace","42","3","15","18","0","534","66","64"
"032217","19:59:32","481","AMP_test","2","primeNeutral","43","1","14","18","0","683","66","61"
"032217","19:59:32","481","AMP_test","2","primeNeutral","44","1","4","18","0","638","66","57"
"032217","19:59:32","481","AMP_test","2","primeRace","45","1","13","23","1","536","68","57"
"032217","19:59:32","481","AMP_test","2","primeRace","46","2","5","23","1","478","69","57"
"032217","19:59:32","481","AMP_test","2","primeNeutral","47","1","19","23","1","507","69","60"
"032217","19:59:32","481","AMP_test","2","primeNeutral","48","1","3","23","1","544","69","61"
"032217","19:59:32","481","AMP_test","2","primeNeutral","49","1","1","18","0","696","69","59"
"032217","19:59:32","481","AMP_test","2","primeNeutral","50","1","12","23","1","680","69","60"
"032217","19:59:32","481","AMP_test","2","primeRace","51","3","6","23","1","770","70","60"
"032217","19:59:32","481","AMP_test","2","primeRace","52","6","7","23","1","520","71","60"
"032217","19:59:32","481","AMP_test","2","primeNeutral","53","1","19","18","0","558","71","58"
"032217","19:59:32","481","AMP_test","2","primeRace","54","4","20","23","1","535","72","58"
"032217","19:59:32","481","AMP_test","2","primeRace","55","1","11","23","1","468","73","58"
"032217","19:59:32","481","AMP_test","2","primeNeutral","56","1","6","18","0","597","73","56"
"032217","19:59:32","481","AMP_test","2","primeRace","57","5","1","18","0","581","70","56"
"032217","19:59:32","481","AMP_test","2","primeNeutral","58","1","4","18","0","510","70","53"
"032217","19:59:32","481","AMP_test","2","primeRace","59","3","12","23","1","445","71","53"
"032217","19:59:32","481","AMP_test","2","primeNeutral","60","1","16","18","0","548","71","51"
"032217","19:59:32","481","AMP_test","2","primeRace","61","6","14","18","0","901","69","51"
"032217","19:59:32","481","AMP_test","2","primeNeutral","62","1","8","23","1","558","69","53"
"032217","19:59:32","481","AMP_test","2","primeNeutral","63","1","15","23","1","544","69","55"
"032217","19:59:32","481","AMP_test","2","primeRace","64","4","9","18","0","472","67","55"
"032217","19:59:32","481","AMP_test","2","primeRace","65","5","5","23","1","561","68","55"
"032217","19:59:32","481","AMP_test","2","primeRace","66","1","3","23","1","1159","69","55"
"032217","19:59:32","481","AMP_test","2","primeNeutral","67","1","2","23","1","419","69","56"
"032217","19:59:32","481","AMP_test","2","primeNeutral","68","1","17","23","1","906","69","58"
"032217","19:59:32","481","AMP_test","2","primeNeutral","69","1","13","23","1","386","69","59"
"032217","19:59:32","481","AMP_test","2","primeNeutral","70","1","18","23","1","353","69","60"
"032217","19:59:32","481","AMP_test","2","primeRace","71","2","10","23","1","665","70","60"
"032217","19:59:32","481","AMP_test","2","primeNeutral","72","1","16","18","0","305","70","58"
"032217","19:59:32","481","AMP_test","2","primeRace","73","3","3","18","0","627","68","58"
"032217","19:59:32","481","AMP_test","2","primeNeutral","74","1","12","18","0","522","68","57"
"032217","19:59:32","481","AMP_test","2","primeNeutral","75","1","1","18","0","481","68","55"
"032217","19:59:32","481","AMP_test","2","primeRace","76","5","9","23","1","475","69","55"
"032217","19:59:32","481","AMP_test","2","primeNeutral","77","1","11","23","1","434","69","56"
"032217","19:59:32","481","AMP_test","2","primeNeutral","78","1","15","18","0","551","69","55"
"032217","19:59:32","481","AMP_test","2","primeNeutral","79","1","5","23","1","487","69","56"
"032217","19:59:32","481","AMP_test","2","primeNeutral","80","1","6","18","0","495","69","55"
"032217","19:59:32","481","AMP_test","2","primeNeutral","81","1","18","18","0","544","69","53"
"032217","19:59:32","481","AMP_test","2","primeNeutral","82","1","13","23","1","372","69","54"
"032217","19:59:32","481","AMP_test","2","primeNeutral","83","1","2","23","1","776","69","55"
"032217","19:59:32","481","AMP_test","2","primeRace","84","4","8","18","0","792","67","55"
"032217","19:59:32","481","AMP_test","2","primeRace","85","6","14","23","1","499","68","55"
"032217","19:59:32","481","AMP_test","2","primeNeutral","86","1","4","18","0","788","68","54"
"032217","19:59:32","481","AMP_test","2","primeNeutral","87","1","7","23","1","535","68","55"
"032217","19:59:32","481","AMP_test","2","primeRace","88","1","20","23","1","653","69","55"
"032217","19:59:32","481","AMP_test","2","primeRace","89","2","19","23","1","499","69","55"
"032217","19:59:32","481","AMP_test","2","primeRace","90","2","17","23","1","537","70","55"
"032217","19:59:32","481","AMP_test","2","primeRace","91","3","10","18","0","910","68","55"
"032217","19:59:32","481","AMP_test","2","primeNeutral","92","1","18","23","1","411","68","56"
"032217","19:59:32","481","AMP_test","2","primeRace","93","6","15","23","1","492","69","56"
"032217","19:59:32","481","AMP_test","2","primeNeutral","94","1","1","18","0","585","69","55"
"032217","19:59:32","481","AMP_test","2","primeRace","95","5","4","18","0","638","68","55"
"032217","19:59:32","481","AMP_test","2","primeNeutral","96","1","9","23","1","506","68","56"
"032217","19:59:32","481","AMP_test","2","primeRace","97","4","2","23","1","667","68","56"
"032217","19:59:32","481","AMP_test","2","primeRace","98","1","17","23","1","431","69","56"
"032217","19:59:32","481","AMP_test","2","primeNeutral","99","1","7","23","1","476","69","57"
"032217","19:59:32","481","AMP_test","2","primeRace","100","3","19","23","1","541","70","57"
"032217","19:59:32","481","AMP_test","2","primeNeutral","101","1","6","18","0","643","70","56"
"032217","23:55:17","480","AMP_practice","1","primeRacepractice","4","0","0","23","0","1734","0","0"
"032217","23:55:17","480","AMP_practice","1","primeNeutralpractice","5","0","0","23","1","731","0","0"
"032217","23:55:17","480","AMP_practice","1","primeRacepractice","6","0","0","23","0","1202","0","0"
"032217","23:55:17","480","AMP_practice","1","primeNeutralpractice","7","0","0","18","1","834","0","0"
"032217","23:55:17","480","AMP_practice","1","primeNeutralpractice","8","0","0","23","1","1164","0","0"
"032217","23:55:17","480","AMP_practice","1","primeNeutralpractice","9","0","0","18","1","625","0","0"
"032217","23:55:17","480","AMP_practice","1","primeNeutralpractice","10","0","0","18","1","750","0","0"
"032217","23:55:17","480","AMP_practice","1","primeRacepractice","11","0","0","23","0","544","0","0"
"032217","23:55:17","480","AMP_practice","1","primeRacepractice","12","0","0","18","1","603","0","0"
"032217","23:55:17","480","AMP_practice","1","primeRacepractice","13","0","0","23","0","788","0","0"
"032217","23:55:17","480","AMP_test","2","primeRace","2","5","11","23","1","722","100","0"
"032217","23:55:17","480","AMP_test","2","primeRace","3","4","17","23","1","1131","100","0"
"032217","23:55:17","480","AMP_test","2","primeNeutral","4","1","19","18","0","937","100","0"
"032217","23:55:17","480","AMP_test","2","primeNeutral","5","1","15","18","0","670","100","0"
"032217","23:55:17","480","AMP_test","2","primeRace","6","6","7","23","1","707","100","0"
"032217","23:55:17","480","AMP_test","2","primeRace","7","3","4","23","1","658","100","0"
"032217","23:55:17","480","AMP_test","2","primeRace","8","5","20","18","0","745","80","0"
"032217","23:55:17","480","AMP_test","2","primeNeutral","9","1","8","23","1","770","80","33"
"032217","23:55:17","480","AMP_test","2","primeNeutral","10","1","16","18","0","798","80","25"
"032217","23:55:17","480","AMP_test","2","primeNeutral","11","1","14","18","0","629","80","20"
"032217","23:55:17","480","AMP_test","2","primeRace","12","1","3","23","1","773","83","20"
"032217","23:55:17","480","AMP_test","2","primeNeutral","13","1","5","18","0","764","83","16"
"032217","23:55:17","480","AMP_test","2","primeNeutral","14","1","6","23","1","661","83","28"
"032217","23:55:17","480","AMP_test","2","primeRace","15","2","15","23","1","847","85","28"
"032217","23:55:17","480","AMP_test","2","primeNeutral","16","1","10","18","0","645","85","25"
"032217","23:55:17","480","AMP_test","2","primeNeutral","17","1","17","23","1","766","85","33"
"032217","23:55:17","480","AMP_test","2","primeRace","18","1","4","18","0","760","75","33"
"032217","23:55:17","480","AMP_test","2","primeNeutral","19","1","16","18","0","819","75","30"
"032217","23:55:17","480","AMP_test","2","primeNeutral","20","1","7","23","1","560","75","36"
"032217","23:55:17","480","AMP_test","2","primeRace","21","3","19","23","1","919","77","36"
"032217","23:55:17","480","AMP_test","2","primeRace","22","4","1","18","0","553","70","36"
"032217","23:55:17","480","AMP_test","2","primeNeutral","23","1","14","23","1","588","70","41"
"032217","23:55:17","480","AMP_test","2","primeNeutral","24","1","9","23","1","835","70","46"
"032217","23:55:17","480","AMP_test","2","primeRace","25","6","18","18","0","832","63","46"
"032217","23:55:17","480","AMP_test","2","primeRace","26","5","20","23","1","676","66","46"
"032217","23:55:17","480","AMP_test","2","primeRace","27","2","8","23","1","788","69","46"
"032217","23:55:17","480","AMP_test","2","primeNeutral","28","1","13","23","1","695","69","50"
"032217","23:55:17","480","AMP_test","2","primeRace","29","1","2","23","1","939","71","50"
"032217","23:55:17","480","AMP_test","2","primeNeutral","30","1","11","18","0","678","71","46"
"032217","23:55:17","480","AMP_test","2","primeRace","31","6","12","23","1","725","73","46"
"032217","23:55:17","480","AMP_test","2","primeRace","32","2","1","23","1","777","75","46"
"032217","23:55:17","480","AMP_test","2","primeRace","33","3","13","18","0","829","70","46"
"032217","23:55:17","480","AMP_test","2","primeNeutral","34","1","2","18","0","739","70","43"
"032217","23:55:17","480","AMP_test","2","primeRace","35","4","19","23","1","699","72","43"
"032217","23:55:17","480","AMP_test","2","primeRace","36","5","9","23","1","706","73","43"
"032217","23:55:17","480","AMP_test","2","primeRace","37","4","12","18","0","574","70","43"
"032217","23:55:17","480","AMP_test","2","primeNeutral","38","1","4","18","0","481","70","41"
"032217","23:55:17","480","AMP_test","2","primeNeutral","39","1","20","23","1","1395","70","44"
"032217","23:55:17","480","AMP_test","2","primeNeutral","40","1","17","18","0","1313","70","42"
"032217","23:55:17","480","AMP_test","2","primeNeutral","41","1","18","23","1","694","70","45"
"032217","23:55:17","480","AMP_test","2","primeRace","42","3","3","18","0","524","66","45"
"032217","23:55:17","480","AMP_test","2","primeNeutral","43","1","15","18","0","789","66","42"
"032217","23:55:17","480","AMP_test","2","primeRace","44","1","5","23","1","1028","68","42"
"032217","23:55:17","480","AMP_test","2","primeNeutral","45","1","14","23","1","1034","68","45"
"032217","23:55:17","480","AMP_test","2","primeRace","46","5","16","23","1","1708","69","45"
"032217","23:55:17","480","AMP_test","2","primeNeutral","47","1","10","18","0","729","69","43"
"032217","23:55:17","480","AMP_test","2","primeNeutral","48","1","7","18","0","1146","69","41"
"032217","23:55:17","480","AMP_test","2","primeNeutral","49","1","11","23","1","443","69","44"
"032217","23:55:17","480","AMP_test","2","primeRace","50","2","8","23","1","954","70","44"
"032217","23:55:17","480","AMP_test","2","primeNeutral","51","1","6","18","0","799","70","42"
"032217","23:55:17","480","AMP_test","2","primeNeutral","52","1","14","23","1","920","70","44"
"032217","23:55:17","480","AMP_test","2","primeRace","53","6","20","18","0","714","68","44"
"032217","23:55:17","480","AMP_test","2","primeRace","54","5","6","18","0","1016","65","44"
"032217","23:55:17","480","AMP_test","2","primeRace","55","3","19","23","1","1038","66","44"
"032217","23:55:17","480","AMP_test","2","primeRace","56","4","3","23","1","1042","67","44"
"032217","23:55:17","480","AMP_test","2","primeRace","57","1","13","18","0","954","65","44"
"032217","23:55:17","480","AMP_test","2","primeRace","58","2","10","18","0","633","63","44"
"032217","23:55:17","480","AMP_test","2","primeRace","59","6","9","23","1","661","64","44"
"032217","23:55:17","480","AMP_test","2","primeNeutral","60","1","8","18","0","960","64","42"
"032217","23:55:17","480","AMP_test","2","primeNeutral","61","1","7","23","1","1181","64","44"
"032217","23:55:17","480","AMP_test","2","primeNeutral","62","1","15","23","1","881","64","46"
"032217","23:55:17","480","AMP_test","2","primeRace","63","5","17","18","0","929","62","46"
"032217","23:55:17","480","AMP_test","2","primeNeutral","64","1","5","18","0","897","62","45"
"032217","23:55:17","480","AMP_test","2","primeRace","65","4","16","23","1","674","63","45"
"032217","23:55:17","480","AMP_test","2","primeRace","66","6","4","23","1","778","64","45"
"032217","23:55:17","480","AMP_test","2","primeNeutral","67","1","2","18","0","694","64","43"
"032217","23:55:17","480","AMP_test","2","primeRace","68","2","12","23","1","809","65","43"
"032217","23:55:17","480","AMP_test","2","primeNeutral","69","1","11","18","0","846","65","42"
"032217","23:55:17","480","AMP_test","2","primeRace","70","3","18","23","1","824","66","42"
"032217","23:55:17","480","AMP_test","2","primeRace","71","1","1","18","0","1051","64","42"
"032217","23:55:17","480","AMP_test","2","primeNeutral","72","1","10","23","1","753","64","44"
"032217","23:55:17","480","AMP_test","2","primeNeutral","73","1","16","18","0","699","64","42"
"032217","23:55:17","480","AMP_test","2","primeRace","74","5","1","18","0","724","63","42"
"032217","23:55:17","480","AMP_test","2","primeNeutral","75","1","3","23","1","528","63","44"
"032217","23:55:17","480","AMP_test","2","primeNeutral","76","1","5","23","1","659","63","45"
"032217","23:55:17","480","AMP_test","2","primeNeutral","77","1","4","18","0","703","63","44"
"032217","23:55:17","480","AMP_test","2","primeRace","78","2","11","18","0","831","61","44"
"032217","23:55:17","480","AMP_test","2","primeNeutral","79","1","8","23","1","870","61","46"
"032217","23:55:17","480","AMP_test","2","primeRace","80","3","15","18","0","687","60","46"
"032217","23:55:17","480","AMP_test","2","primeRace","81","4","7","23","1","746","60","46"
"032217","23:55:17","480","AMP_test","2","primeNeutral","82","1","9","18","0","703","60","45"
"032217","23:55:17","480","AMP_test","2","primeNeutral","83","1","20","23","1","600","60","46"
"032217","23:55:17","480","AMP_test","2","primeNeutral","84","1","14","23","1","791","60","47"
"032217","23:55:17","480","AMP_test","2","primeRace","85","1","6","18","0","751","59","47"
"032217","23:55:17","480","AMP_test","2","primeNeutral","86","1","12","18","0","854","59","46"
"032217","23:55:17","480","AMP_test","2","primeNeutral","87","1","2","23","1","685","59","47"
"032217","23:55:17","480","AMP_test","2","primeRace","88","6","19","23","1","752","60","47"
"032217","23:55:17","480","AMP_test","2","primeNeutral","89","1","17","18","0","601","60","46"
"032217","23:55:17","480","AMP_test","2","primeRace","90","6","13","18","0","720","59","46"
"032217","23:55:17","480","AMP_test","2","primeNeutral","91","1","18","18","0","880","59","45"
"032217","23:55:17","480","AMP_test","2","primeRace","92","4","9","23","1","547","60","45"
"032217","23:55:17","480","AMP_test","2","primeRace","93","1","5","18","0","870","58","45"
"032217","23:55:17","480","AMP_test","2","primeNeutral","94","1","2","23","1","863","58","46"
"032217","23:55:17","480","AMP_test","2","primeRace","95","3","4","18","0","419","57","46"
"032217","23:55:17","480","AMP_test","2","primeNeutral","96","1","18","18","0","298","57","45"
"032217","23:55:17","480","AMP_test","2","primeRace","97","5","13","18","0","442","56","45"
"032217","23:55:17","480","AMP_test","2","primeNeutral","98","1","10","18","0","284","56","44"
"032217","23:55:17","480","AMP_test","2","primeNeutral","99","1","17","23","1","582","56","46"
"032217","23:55:17","480","AMP_test","2","primeRace","100","2","7","18","0","462","55","46"
"032217","23:55:17","480","AMP_test","2","primeRace","101","3","11","23","1","457","56","46"
"032217","23:51:46","478","AMP_practice","1","primeNeutralpractice","4","0","0","18","1","2914","0","0"
"032217","23:51:46","478","AMP_practice","1","primeRacepractice","5","0","0","23","0","1375","0","0"
"032217","23:51:46","478","AMP_practice","1","primeNeutralpractice","6","0","0","23","1","959","0","0"
"032217","23:51:46","478","AMP_practice","1","primeNeutralpractice","7","0","0","23","1","972","0","0"
"032217","23:51:46","478","AMP_practice","1","primeRacepractice","8","0","0","23","0","1085","0","0"
"032217","23:51:46","478","AMP_practice","1","primeRacepractice","9","0","0","23","0","1140","0","0"
"032217","23:51:46","478","AMP_practice","1","primeRacepractice","10","0","0","18","1","776","0","0"
"032217","23:51:46","478","AMP_practice","1","primeNeutralpractice","11","0","0","23","1","1014","0","0"
"032217","23:51:46","478","AMP_practice","1","primeNeutralpractice","12","0","0","23","1","961","0","0"
"032217","23:51:46","478","AMP_practice","1","primeRacepractice","13","0","0","18","1","711","0","0"
"032217","23:51:46","478","AMP_test","2","primeRace","2","5","10","18","0","1489","0","0"
"032217","23:51:46","478","AMP_test","2","primeRace","3","4","5","23","1","961","50","0"
"032217","23:51:46","478","AMP_test","2","primeRace","4","3","13","23","1","995","66","0"
"032217","23:51:46","478","AMP_test","2","primeRace","5","1","12","18","0","815","50","0"
"032217","23:51:46","478","AMP_test","2","primeNeutral","6","1","4","18","0","1368","50","0"
"032217","23:51:46","478","AMP_test","2","primeRace","7","6","2","23","1","1026","60","0"
"032217","23:51:46","478","AMP_test","2","primeNeutral","8","1","14","18","0","832","60","0"
"032217","23:51:46","478","AMP_test","2","primeRace","9","5","9","23","1","783","66","0"
"032217","23:51:46","478","AMP_test","2","primeRace","10","2","1","18","0","1255","57","0"
"032217","23:51:46","478","AMP_test","2","primeRace","11","5","15","18","0","792","50","0"
"032217","23:51:46","478","AMP_test","2","primeRace","12","6","2","23","1","626","55","0"
"032217","23:51:46","478","AMP_test","2","primeRace","13","1","11","23","1","877","60","0"
"032217","23:51:46","478","AMP_test","2","primeRace","14","2","9","23","1","836","63","0"
"032217","23:51:46","478","AMP_test","2","primeRace","15","4","5","18","0","691","58","0"
"032217","23:51:46","478","AMP_test","2","primeRace","16","3","16","23","1","1033","61","0"
"032217","23:51:46","478","AMP_test","2","primeRace","17","2","4","18","0","951","57","0"
"032217","23:51:46","478","AMP_test","2","primeRace","18","1","8","18","0","856","53","0"
"032217","23:51:46","478","AMP_test","2","primeNeutral","19","1","3","23","1","633","53","33"
"032217","23:51:46","478","AMP_test","2","primeNeutral","20","1","12","23","1","843","53","50"
"032217","23:51:46","478","AMP_test","2","primeNeutral","21","1","13","23","1","789","53","60"
"032217","23:51:46","478","AMP_test","2","primeRace","22","5","10","18","0","599","50","60"
"032217","23:51:46","478","AMP_test","2","primeNeutral","23","1","17","23","1","792","50","66"
"032217","23:51:46","478","AMP_test","2","primeNeutral","24","1","6","23","1","968","50","71"
"032217","23:51:46","478","AMP_test","2","primeNeutral","25","1","7","18","0","566","50","62"
"032217","23:51:46","478","AMP_test","2","primeNeutral","26","1","18","23","1","813","50","66"
"032217","23:51:46","478","AMP_test","2","primeNeutral","27","1","15","18","0","860","50","60"
"032217","23:51:46","478","AMP_test","2","primeNeutral","28","1","14","18","0","617","50","54"
"032217","23:51:46","478","AMP_test","2","primeNeutral","29","1","19","23","1","678","50","58"
"032217","23:51:46","478","AMP_test","2","primeRace","30","4","20","18","0","890","47","58"
"032217","23:51:46","478","AMP_test","2","primeNeutral","31","1","1","23","1","851","47","61"
"032217","23:51:46","478","AMP_test","2","primeNeutral","32","1","1","18","0","1528","47","57"
"032217","23:51:46","478","AMP_test","2","primeRace","33","6","12","23","1","1128","50","57"
"032217","23:51:46","478","AMP_test","2","primeNeutral","34","1","15","18","0","677","50","53"
"032217","23:51:46","478","AMP_test","2","primeRace","35","3","17","23","1","684","52","53"
"032217","23:51:46","478","AMP_test","2","primeNeutral","36","1","13","23","1","892","52","56"
"032217","23:51:46","478","AMP_test","2","primeNeutral","37","1","20","18","0","579","52","52"
"032217","23:51:46","478","AMP_test","2","primeNeutral","38","1","9","23","1","680","52","55"
"032217","23:51:46","478","AMP_test","2","primeRace","39","3","2","23","1","1309","55","55"
"032217","23:51:46","478","AMP_test","2","primeRace","40","4","19","18","0","910","52","55"
"032217","23:51:46","478","AMP_test","2","primeNeutral","41","1","5","23","1","1538","52","57"
"032217","23:51:46","478","AMP_test","2","primeNeutral","42","1","8","23","1","870","52","60"
"032217","23:51:46","478","AMP_test","2","primeRace","43","1","6","23","1","1118","54","60"
"032217","23:51:46","478","AMP_test","2","primeRace","44","2","18","18","0","530","52","60"
"032217","23:51:46","478","AMP_test","2","primeNeutral","45","1","14","18","0","571","52","57"
"032217","23:51:46","478","AMP_test","2","primeRace","46","6","7","23","1","1486","54","57"
"032217","23:51:46","478","AMP_test","2","primeNeutral","47","1","10","18","0","893","54","54"
"032217","23:51:46","478","AMP_test","2","primeRace","48","5","4","23","1","607","56","54"
"032217","23:51:46","478","AMP_test","2","primeNeutral","49","1","3","23","1","953","56","56"
"032217","23:51:46","478","AMP_test","2","primeRace","50","4","11","18","0","705","53","56"
"032217","23:51:46","478","AMP_test","2","primeNeutral","51","1","16","18","0","1445","53","54"
"032217","23:51:46","478","AMP_test","2","primeRace","52","1","5","18","0","839","51","54"
"032217","23:51:46","478","AMP_test","2","primeRace","53","6","18","18","0","751","50","54"
"032217","23:51:46","478","AMP_test","2","primeNeutral","54","1","19","23","1","375","50","56"
"032217","23:51:46","478","AMP_test","2","primeRace","55","2","13","23","1","728","51","56"
"032217","23:51:46","478","AMP_test","2","primeNeutral","56","1","7","23","1","1084","51","57"
"032217","23:51:46","478","AMP_test","2","primeNeutral","57","1","3","23","1","840","51","59"
"032217","23:51:46","478","AMP_test","2","primeRace","58","5","12","18","0","993","50","59"
"032217","23:51:46","478","AMP_test","2","primeNeutral","59","1","14","18","0","890","50","57"
"032217","23:51:46","478","AMP_test","2","primeNeutral","60","1","4","23","1","475","50","58"
"032217","23:51:46","478","AMP_test","2","primeNeutral","61","1","20","18","0","614","50","56"
"032217","23:51:46","478","AMP_test","2","primeRace","62","3","8","23","1","1214","51","56"
"032217","23:51:46","478","AMP_test","2","primeRace","63","6","1","18","0","806","50","56"
"032217","23:51:46","478","AMP_test","2","primeNeutral","64","1","16","23","1","777","50","58"
"032217","23:51:46","478","AMP_test","2","primeRace","65","1","11","23","1","1139","51","58"
"032217","23:51:46","478","AMP_test","2","primeRace","66","2","10","18","0","826","50","58"
"032217","23:51:46","478","AMP_test","2","primeNeutral","67","1","15","18","0","1182","50","56"
"032217","23:51:46","478","AMP_test","2","primeRace","68","5","17","23","1","675","51","56"
"032217","23:51:46","478","AMP_test","2","primeRace","69","4","2","23","1","746","52","56"
"032217","23:51:46","478","AMP_test","2","primeNeutral","70","1","9","23","1","733","52","57"
"032217","23:51:46","478","AMP_test","2","primeNeutral","71","1","6","23","1","808","52","58"
"032217","23:51:46","478","AMP_test","2","primeNeutral","72","1","18","18","0","567","52","57"
"032217","23:51:46","478","AMP_test","2","primeRace","73","3","2","23","1","815","54","57"
"032217","23:51:46","478","AMP_test","2","primeRace","74","2","5","18","0","521","52","57"
"032217","23:51:46","478","AMP_test","2","primeNeutral","75","1","15","18","0","669","52","55"
"032217","23:51:46","478","AMP_test","2","primeNeutral","76","1","17","23","1","542","52","56"
"032217","23:51:46","478","AMP_test","2","primeNeutral","77","1","12","18","0","1100","52","55"
"032217","23:51:46","478","AMP_test","2","primeRace","78","6","9","23","1","644","53","55"
"032217","23:51:46","478","AMP_test","2","primeRace","79","5","1","18","0","768","52","55"
"032217","23:51:46","478","AMP_test","2","primeRace","80","4","13","23","1","680","53","55"
"032217","23:51:46","478","AMP_test","2","primeNeutral","81","1","6","23","1","780","53","56"
"032217","23:51:46","478","AMP_test","2","primeRace","82","1","11","18","0","708","52","56"
"032217","23:51:46","478","AMP_test","2","primeNeutral","83","1","14","18","0","831","52","55"
"032217","23:51:46","478","AMP_test","2","primeNeutral","84","1","16","18","0","1479","52","53"
"032217","23:51:46","478","AMP_test","2","primeNeutral","85","1","8","23","1","749","52","54"
"032217","23:51:46","478","AMP_test","2","primeRace","86","3","3","23","1","1128","53","54"
"032217","23:51:46","478","AMP_test","2","primeRace","87","6","4","18","0","931","52","54"
"032217","23:51:46","478","AMP_test","2","primeNeutral","88","1","19","23","1","617","52","55"
"032217","23:51:46","478","AMP_test","2","primeNeutral","89","1","20","18","0","553","52","54"
"032217","23:51:46","478","AMP_test","2","primeNeutral","90","1","10","23","1","991","52","55"
"032217","23:51:46","478","AMP_test","2","primeNeutral","91","1","7","18","0","633","52","54"
"032217","23:51:46","478","AMP_test","2","primeNeutral","92","1","16","23","1","703","52","55"
"032217","23:51:46","478","AMP_test","2","primeNeutral","93","1","13","23","1","627","52","56"
"032217","23:51:46","478","AMP_test","2","primeRace","94","1","18","18","0","612","51","56"
"032217","23:51:46","478","AMP_test","2","primeNeutral","95","1","14","18","0","570","51","55"
"032217","23:51:46","478","AMP_test","2","primeRace","96","2","20","18","0","703","50","55"
"032217","23:51:46","478","AMP_test","2","primeRace","97","4","7","18","0","1044","48","55"
"032217","23:51:46","478","AMP_test","2","primeRace","98","3","12","23","1","941","50","55"
"032217","23:51:46","478","AMP_test","2","primeRace","99","5","10","18","0","822","48","55"
"032217","23:51:46","478","AMP_test","2","primeNeutral","100","1","5","18","0","767","48","54"
"032217","23:51:46","478","AMP_test","2","primeRace","101","4","9","23","1","456","50","54"
"032217","18:47:08","475","AMP_practice","1","primeNeutralpractice","4","0","0","23","1","1680","0","0"
"032217","18:47:08","475","AMP_practice","1","primeNeutralpractice","5","0","0","23","1","1598","0","0"
"032217","18:47:08","475","AMP_practice","1","primeNeutralpractice","6","0","0","23","1","919","0","0"
"032217","18:47:08","475","AMP_practice","1","primeRacepractice","7","0","0","23","0","836","0","0"
"032217","18:47:08","475","AMP_practice","1","primeRacepractice","8","0","0","23","0","714","0","0"
"032217","18:47:08","475","AMP_practice","1","primeRacepractice","9","0","0","23","0","530","0","0"
"032217","18:47:08","475","AMP_practice","1","primeRacepractice","10","0","0","23","0","545","0","0"
"032217","18:47:08","475","AMP_practice","1","primeNeutralpractice","11","0","0","23","1","647","0","0"
"032217","18:47:08","475","AMP_practice","1","primeRacepractice","12","0","0","23","0","550","0","0"
"032217","18:47:08","475","AMP_practice","1","primeNeutralpractice","13","0","0","23","1","411","0","0"
"032217","18:47:08","475","AMP_test","2","primeRace","2","2","3","23","1","911","100","0"
"032217","18:47:08","475","AMP_test","2","primeRace","3","1","17","18","0","959","50","0"
"032217","18:47:08","475","AMP_test","2","primeRace","4","3","7","23","1","592","66","0"
"032217","18:47:08","475","AMP_test","2","primeRace","5","4","2","23","1","505","75","0"
"032217","18:47:08","475","AMP_test","2","primeRace","6","5","1","23","1","724","80","0"
"032217","18:47:08","475","AMP_test","2","primeNeutral","7","1","13","23","1","771","80","100"
"032217","18:47:08","475","AMP_test","2","primeRace","8","2","8","18","0","626","66","100"
"032217","18:47:08","475","AMP_test","2","primeRace","9","6","6","23","1","560","71","100"
"032217","18:47:08","475","AMP_test","2","primeRace","10","1","19","23","1","411","75","100"
"032217","18:47:08","475","AMP_test","2","primeNeutral","11","1","20","23","1","423","75","100"
"032217","18:47:08","475","AMP_test","2","primeRace","12","6","6","23","1","438","77","100"
"032217","18:47:08","475","AMP_test","2","primeNeutral","13","1","2","18","0","501","77","66"
"032217","18:47:08","475","AMP_test","2","primeRace","14","4","20","23","1","352","80","66"
"032217","18:47:08","475","AMP_test","2","primeRace","15","3","8","23","1","349","81","66"
"032217","18:47:08","475","AMP_test","2","primeRace","16","2","11","23","1","360","83","66"
"032217","18:47:08","475","AMP_test","2","primeRace","17","5","7","23","1","316","84","66"
"032217","18:47:08","475","AMP_test","2","primeNeutral","18","1","15","23","1","253","84","75"
"032217","18:47:08","475","AMP_test","2","primeRace","19","5","5","23","1","135","85","75"
"032217","18:47:08","475","AMP_test","2","primeNeutral","20","1","13","23","1","2183","85","80"
"032217","18:47:08","475","AMP_test","2","primeNeutral","21","1","10","23","1","435","85","83"
"032217","18:47:08","475","AMP_test","2","primeNeutral","22","1","3","18","0","443","85","71"
"032217","18:47:08","475","AMP_test","2","primeNeutral","23","1","4","23","1","495","85","75"
"032217","18:47:08","475","AMP_test","2","primeRace","24","4","16","23","1","313","86","75"
"032217","18:47:08","475","AMP_test","2","primeNeutral","25","1","1","23","1","227","86","77"
"032217","18:47:08","475","AMP_test","2","primeRace","26","3","19","23","1","262","87","77"
"032217","18:47:08","475","AMP_test","2","primeNeutral","27","1","17","23","1","308","87","80"
"032217","18:47:08","475","AMP_test","2","primeRace","28","1","12","23","1","357","88","80"
"032217","18:47:08","475","AMP_test","2","primeNeutral","29","1","18","23","1","264","88","81"
"032217","18:47:08","475","AMP_test","2","primeNeutral","30","1","9","23","1","306","88","83"
"032217","18:47:08","475","AMP_test","2","primeNeutral","31","1","14","23","1","303","88","84"
"032217","18:47:08","475","AMP_test","2","primeNeutral","32","1","12","18","0","291","88","78"
"032217","18:47:08","475","AMP_test","2","primeNeutral","33","1","18","18","0","549","88","73"
"032217","18:47:08","475","AMP_test","2","primeNeutral","34","1","2","23","1","274","88","75"
"032217","18:47:08","475","AMP_test","2","primeNeutral","35","1","19","23","1","235","88","76"
"032217","18:47:08","475","AMP_test","2","primeNeutral","36","1","17","23","1","272","88","77"
"032217","18:47:08","475","AMP_test","2","primeNeutral","37","1","16","23","1","241","88","78"
"032217","18:47:08","475","AMP_test","2","primeNeutral","38","1","7","23","1","306","88","80"
"032217","18:47:08","475","AMP_test","2","primeRace","39","6","5","23","1","283","88","80"
"032217","18:47:08","475","AMP_test","2","primeNeutral","40","1","13","23","1","322","88","80"
"032217","18:47:08","475","AMP_test","2","primeRace","41","2","20","18","0","344","84","80"
"032217","18:47:08","475","AMP_test","2","primeNeutral","42","1","4","23","1","225","84","81"
"032217","18:47:08","475","AMP_test","2","primeRace","43","1","15","23","1","269","85","81"
"032217","18:47:08","475","AMP_test","2","primeRace","44","2","14","23","1","251","85","81"
"032217","18:47:08","475","AMP_test","2","primeRace","45","6","3","23","1","259","86","81"
"032217","18:47:08","475","AMP_test","2","primeNeutral","46","1","1","23","1","290","86","82"
"032217","18:47:08","475","AMP_test","2","primeRace","47","4","6","23","1","304","86","82"
"032217","18:47:08","475","AMP_test","2","primeNeutral","48","1","8","23","1","204","86","83"
"032217","18:47:08","475","AMP_test","2","primeRace","49","5","11","23","1","260","87","83"
"032217","18:47:08","475","AMP_test","2","primeNeutral","50","1","10","23","1","260","87","84"
"032217","18:47:08","475","AMP_test","2","primeNeutral","51","1","9","23","1","250","87","84"
"032217","18:47:08","475","AMP_test","2","primeRace","52","3","16","23","1","272","88","84"
"032217","18:47:08","475","AMP_test","2","primeNeutral","53","1","2","23","1","260","88","85"
"032217","18:47:08","475","AMP_test","2","primeRace","54","1","5","23","1","263","88","85"
"032217","18:47:08","475","AMP_test","2","primeNeutral","55","1","4","23","1","88","88","85"
"032217","18:47:08","475","AMP_test","2","primeRace","56","6","10","23","1","170","88","85"
"032217","18:47:08","475","AMP_test","2","primeRace","57","3","3","23","1","156","89","85"
"032217","18:47:08","475","AMP_test","2","primeRace","58","4","8","23","1","105","89","85"
"032217","18:47:08","475","AMP_test","2","primeNeutral","59","1","15","23","1","345","89","86"
"032217","18:47:08","475","AMP_test","2","primeRace","60","2","1","18","0","368","86","86"
"032217","18:47:08","475","AMP_test","2","primeRace","61","5","20","23","1","989","87","86"
"032217","18:47:08","475","AMP_test","2","primeNeutral","62","1","17","23","1","399","87","86"
"032217","18:47:08","475","AMP_test","2","primeNeutral","63","1","11","23","1","413","87","87"
"032217","18:47:08","475","AMP_test","2","primeRace","64","6","13","23","1","329","87","87"
"032217","18:47:08","475","AMP_test","2","primeNeutral","65","1","9","18","0","518","87","84"
"032217","18:47:08","475","AMP_test","2","primeNeutral","66","1","19","23","1","302","87","84"
"032217","18:47:08","475","AMP_test","2","primeNeutral","67","1","18","18","0","451","87","82"
"032217","18:47:08","475","AMP_test","2","primeNeutral","68","1","7","23","1","244","87","82"
"032217","18:47:08","475","AMP_test","2","primeNeutral","69","1","14","23","1","194","87","83"
"032217","18:47:08","475","AMP_test","2","primeNeutral","70","1","12","23","1","231","87","83"
"032217","18:47:08","475","AMP_test","2","primeRace","71","5","6","23","1","266","87","83"
"032217","18:47:08","475","AMP_test","2","primeRace","72","2","11","23","1","180","88","83"
"032217","18:47:08","475","AMP_test","2","primeNeutral","73","1","13","23","1","178","88","84"
"032217","18:47:08","475","AMP_test","2","primeNeutral","74","1","15","23","1","40","88","84"
"032217","18:47:08","475","AMP_test","2","primeNeutral","75","1","10","23","1","329","88","85"
"032217","18:47:08","475","AMP_test","2","primeNeutral","76","1","18","18","0","357","88","82"
"032217","18:47:08","475","AMP_test","2","primeRace","77","1","17","23","1","192","88","82"
"032217","18:47:08","475","AMP_test","2","primeRace","78","4","5","23","1","293","88","82"
"032217","18:47:08","475","AMP_test","2","primeRace","79","3","8","23","1","363","89","82"
"032217","18:47:08","475","AMP_test","2","primeRace","80","5","12","23","1","294","89","82"
"032217","18:47:08","475","AMP_test","2","primeNeutral","81","1","3","23","1","268","89","83"
"032217","18:47:08","475","AMP_test","2","primeRace","82","4","19","23","1","257","89","83"
"032217","18:47:08","475","AMP_test","2","primeRace","83","1","9","23","1","271","90","83"
"032217","18:47:08","475","AMP_test","2","primeRace","84","6","16","23","1","273","90","83"
"032217","18:47:08","475","AMP_test","2","primeRace","85","3","2","23","1","320","90","83"
"032217","18:47:08","475","AMP_test","2","primeNeutral","86","1","14","23","1","370","90","83"
"032217","18:47:08","475","AMP_test","2","primeNeutral","87","1","1","23","1","283","90","84"
"032217","18:47:08","475","AMP_test","2","primeRace","88","2","4","23","1","350","90","84"
"032217","18:47:08","475","AMP_test","2","primeNeutral","89","1","20","23","1","240","90","84"
"032217","18:47:08","475","AMP_test","2","primeRace","90","4","6","23","1","324","90","84"
"032217","18:47:08","475","AMP_test","2","primeNeutral","91","1","7","23","1","314","90","84"
"032217","18:47:08","475","AMP_test","2","primeRace","92","2","10","23","1","298","91","84"
"032217","18:47:08","475","AMP_test","2","primeNeutral","93","1","8","23","1","310","91","85"
"032217","18:47:08","475","AMP_test","2","primeRace","94","6","15","23","1","222","91","85"
"032217","18:47:08","475","AMP_test","2","primeRace","95","3","12","23","1","232","91","85"
"032217","18:47:08","475","AMP_test","2","primeRace","96","5","18","23","1","284","91","85"
"032217","18:47:08","475","AMP_test","2","primeNeutral","97","1","16","23","1","243","91","85"
"032217","18:47:08","475","AMP_test","2","primeNeutral","98","1","1","23","1","359","91","85"
"032217","18:47:08","475","AMP_test","2","primeNeutral","99","1","19","23","1","233","91","86"
"032217","18:47:08","475","AMP_test","2","primeRace","100","1","9","23","1","223","91","86"
"032217","18:47:08","475","AMP_test","2","primeRace","101","5","2","23","1","221","92","86"
"032217","19:28:24","459","AMP_practice","1","primeRacepractice","4","0","0","18","1","2771","0","0"
"032217","19:28:24","459","AMP_practice","1","primeNeutralpractice","5","0","0","18","1","3567","0","0"
"032217","19:28:24","459","AMP_practice","1","primeNeutralpractice","6","0","0","23","1","2317","0","0"
"032217","19:28:24","459","AMP_practice","1","primeRacepractice","7","0","0","18","1","1831","0","0"
"032217","19:28:24","459","AMP_practice","1","primeNeutralpractice","8","0","0","18","1","1285","0","0"
"032217","19:28:24","459","AMP_practice","1","primeRacepractice","9","0","0","23","0","1154","0","0"
"032217","19:28:24","459","AMP_practice","1","primeRacepractice","10","0","0","23","0","1736","0","0"
"032217","19:28:24","459","AMP_practice","1","primeNeutralpractice","11","0","0","18","1","837","0","0"
"032217","19:28:24","459","AMP_practice","1","primeRacepractice","12","0","0","23","0","613","0","0"
"032217","19:28:24","459","AMP_practice","1","primeNeutralpractice","13","0","0","23","1","3532","0","0"
"032217","19:28:24","459","AMP_test","2","primeRace","2","5","3","23","1","5085","100","0"
"032217","19:28:24","459","AMP_test","2","primeNeutral","3","1","10","23","1","913","100","100"
"032217","19:28:24","459","AMP_test","2","primeRace","4","5","13","23","1","1279","100","100"
"032217","19:28:24","459","AMP_test","2","primeNeutral","5","1","15","23","1","547","100","100"
"032217","19:28:24","459","AMP_test","2","primeRace","6","1","20","23","1","1629","100","100"
"032217","19:28:24","459","AMP_test","2","primeRace","7","3","2","23","1","399","100","100"
"032217","19:28:24","459","AMP_test","2","primeNeutral","8","1","11","18","0","1013","100","66"
"032217","19:28:24","459","AMP_test","2","primeNeutral","9","1","8","23","1","374","100","75"
"032217","19:28:24","459","AMP_test","2","primeNeutral","10","1","1","18","0","520","100","60"
"032217","19:28:24","459","AMP_test","2","primeRace","11","2","7","23","1","369","100","60"
"032217","19:28:24","459","AMP_test","2","primeNeutral","12","1","11","18","0","823","100","50"
"032217","19:28:24","459","AMP_test","2","primeNeutral","13","1","20","23","1","321","100","57"
"032217","19:28:24","459","AMP_test","2","primeNeutral","14","1","16","23","1","345","100","62"
"032217","19:28:24","459","AMP_test","2","primeRace","15","4","17","23","1","462","100","62"
"032217","19:28:24","459","AMP_test","2","primeRace","16","6","10","23","1","276","100","62"
"032217","19:28:24","459","AMP_test","2","primeNeutral","17","1","7","18","0","695","100","55"
"032217","19:28:24","459","AMP_test","2","primeRace","18","6","19","23","1","351","100","55"
"032217","19:28:24","459","AMP_test","2","primeNeutral","19","1","3","18","0","358","100","50"
"032217","19:28:24","459","AMP_test","2","primeNeutral","20","1","12","23","1","54","100","54"
"032217","19:28:24","459","AMP_test","2","primeRace","21","1","2","23","1","323","100","54"
"032217","19:28:24","459","AMP_test","2","primeNeutral","22","1","5","23","1","284","100","58"
"032217","19:28:24","459","AMP_test","2","primeRace","23","3","18","18","0","165","90","58"
"032217","19:28:24","459","AMP_test","2","primeNeutral","24","1","1","23","1","313","90","61"
"032217","19:28:24","459","AMP_test","2","primeRace","25","2","14","23","1","253","90","61"
"032217","19:28:24","459","AMP_test","2","primeRace","26","5","8","18","0","272","83","61"
"032217","19:28:24","459","AMP_test","2","primeNeutral","27","1","4","23","1","378","83","64"
"032217","19:28:24","459","AMP_test","2","primeRace","28","4","15","23","1","369","84","64"
"032217","19:28:24","459","AMP_test","2","primeRace","29","6","6","23","1","363","85","64"
"032217","19:28:24","459","AMP_test","2","primeNeutral","30","1","13","23","1","317","85","66"
"032217","19:28:24","459","AMP_test","2","primeRace","31","2","9","23","1","757","86","66"
"032217","19:28:24","459","AMP_test","2","primeRace","32","5","18","23","1","621","87","66"
"032217","19:28:24","459","AMP_test","2","primeRace","33","1","17","23","1","505","88","66"
"032217","19:28:24","459","AMP_test","2","primeNeutral","34","1","10","23","1","547","88","68"
"032217","19:28:24","459","AMP_test","2","primeRace","35","3","8","18","0","316","83","68"
"032217","19:28:24","459","AMP_test","2","primeNeutral","36","1","13","23","1","437","83","70"
"032217","19:28:24","459","AMP_test","2","primeRace","37","4","7","23","1","348","84","70"
"032217","19:28:24","459","AMP_test","2","primeRace","38","1","1","23","1","1222","85","70"
"032217","19:28:24","459","AMP_test","2","primeRace","39","4","2","23","1","160","85","70"
"032217","19:28:24","459","AMP_test","2","primeNeutral","40","1","9","23","1","355","85","72"
"032217","19:28:24","459","AMP_test","2","primeNeutral","41","1","14","18","0","350","85","68"
"032217","19:28:24","459","AMP_test","2","primeRace","42","2","20","23","1","271","86","68"
"032217","19:28:24","459","AMP_test","2","primeRace","43","6","15","23","1","576","86","68"
"032217","19:28:24","459","AMP_test","2","primeNeutral","44","1","12","23","1","270","86","70"
"032217","19:28:24","459","AMP_test","2","primeNeutral","45","1","5","23","1","98","86","71"
"032217","19:28:24","459","AMP_test","2","primeNeutral","46","1","19","23","1","899","86","72"
"032217","19:28:24","459","AMP_test","2","primeRace","47","3","11","23","1","73","87","72"
"032217","19:28:24","459","AMP_test","2","primeNeutral","48","1","4","23","1","583","87","73"
"032217","19:28:24","459","AMP_test","2","primeRace","49","5","3","23","1","260","88","73"
"032217","19:28:24","459","AMP_test","2","primeNeutral","50","1","16","23","1","422","88","75"
"032217","19:28:24","459","AMP_test","2","primeRace","51","5","6","23","1","190","88","75"
"032217","19:28:24","459","AMP_test","2","primeNeutral","52","1","17","23","1","372","88","76"
"032217","19:28:24","459","AMP_test","2","primeRace","53","6","16","23","1","505","88","76"
"032217","19:28:24","459","AMP_test","2","primeRace","54","2","19","23","1","484","89","76"
"032217","19:28:24","459","AMP_test","2","primeNeutral","55","1","4","23","1","470","89","76"
"032217","19:28:24","459","AMP_test","2","primeNeutral","56","1","5","23","1","415","89","77"
"032217","19:28:24","459","AMP_test","2","primeNeutral","57","1","7","23","1","426","89","78"
"032217","19:28:24","459","AMP_test","2","primeNeutral","58","1","2","23","1","1","89","79"
"032217","19:28:24","459","AMP_test","2","primeRace","59","4","10","23","1","707","89","79"
"032217","19:28:24","459","AMP_test","2","primeNeutral","60","1","3","23","1","473","89","80"
"032217","19:28:24","459","AMP_test","2","primeNeutral","61","1","14","23","1","356","89","80"
"032217","19:28:24","459","AMP_test","2","primeNeutral","62","1","9","23","1","292","89","81"
"032217","19:28:24","459","AMP_test","2","primeRace","63","1","11","23","1","530","90","81"
"032217","19:28:24","459","AMP_test","2","primeNeutral","64","1","20","23","1","2109","90","81"
"032217","19:28:24","459","AMP_test","2","primeRace","65","3","18","23","1","316","90","81"
"032217","19:28:24","459","AMP_test","2","primeNeutral","66","1","12","23","1","238","90","82"
"032217","19:28:24","459","AMP_test","2","primeRace","67","4","1","23","1","185","90","82"
"032217","19:28:24","459","AMP_test","2","primeNeutral","68","1","13","23","1","330","90","82"
"032217","19:28:24","459","AMP_test","2","primeRace","69","1","15","23","1","472","90","82"
"032217","19:28:24","459","AMP_test","2","primeRace","70","6","8","23","1","148","91","82"
"032217","19:28:24","459","AMP_test","2","primeRace","71","3","6","23","1","376","91","82"
"032217","19:28:24","459","AMP_test","2","primeRace","72","2","18","23","1","392","91","82"
"032217","19:28:24","459","AMP_test","2","primeNeutral","73","1","12","23","1","400","91","83"
"032217","19:28:24","459","AMP_test","2","primeNeutral","74","1","6","23","1","602","91","83"
"032217","19:28:24","459","AMP_test","2","primeRace","75","5","16","23","1","1934","91","83"
"032217","19:28:24","459","AMP_test","2","primeRace","76","6","11","23","1","307","92","83"
"032217","19:28:24","459","AMP_test","2","primeRace","77","1","14","23","1","2014","92","83"
"032217","19:28:24","459","AMP_test","2","primeNeutral","78","1","1","23","1","258","92","84"
"032217","19:28:24","459","AMP_test","2","primeNeutral","79","1","20","23","1","45","92","84"
"032217","19:28:24","459","AMP_test","2","primeRace","80","5","3","23","1","3","92","84"
"032217","19:28:24","459","AMP_test","2","primeRace","81","2","4","23","1","15","92","84"
"032217","19:28:24","459","AMP_test","2","primeNeutral","82","1","8","23","1","195","92","85"
"032217","19:28:24","459","AMP_test","2","primeNeutral","83","1","15","23","1","1658","92","85"
"032217","19:28:24","459","AMP_test","2","primeRace","84","3","10","23","1","1224","92","85"
"032217","19:28:24","459","AMP_test","2","primeNeutral","85","1","19","23","1","347","92","85"
"032217","19:28:24","459","AMP_test","2","primeNeutral","86","1","17","23","1","629","92","86"
"032217","19:28:24","459","AMP_test","2","primeRace","87","4","13","23","1","243","93","86"
"032217","19:28:24","459","AMP_test","2","primeNeutral","88","1","7","23","1","1201","93","86"
"032217","19:28:24","459","AMP_test","2","primeRace","89","2","9","23","1","299","93","86"
"032217","19:28:24","459","AMP_test","2","primeNeutral","90","1","2","23","1","230","93","86"
"032217","19:28:24","459","AMP_test","2","primeRace","91","4","5","23","1","228","93","86"
"032217","19:28:24","459","AMP_test","2","primeRace","92","5","3","23","1","213","93","86"
"032217","19:28:24","459","AMP_test","2","primeNeutral","93","1","17","23","1","252","93","86"
"032217","19:28:24","459","AMP_test","2","primeRace","94","1","8","23","1","448","93","86"
"032217","19:28:24","459","AMP_test","2","primeNeutral","95","1","15","23","1","300","93","87"
"032217","19:28:24","459","AMP_test","2","primeRace","96","6","4","23","1","371","93","87"
"032217","19:28:24","459","AMP_test","2","primeNeutral","97","1","16","23","1","391","93","87"
"032217","19:28:24","459","AMP_test","2","primeRace","98","3","20","23","1","171","93","87"
"032217","19:28:24","459","AMP_test","2","primeNeutral","99","1","7","23","1","367","93","87"
"032217","19:28:24","459","AMP_test","2","primeRace","100","3","10","23","1","1355","94","87"
"032217","19:28:24","459","AMP_test","2","primeNeutral","101","1","19","23","1","5558","94","88"
"032217","23:27:45","468","AMP_practice","1","primeNeutralpractice","4","0","0","18","1","2876","0","0"
"032217","23:27:45","468","AMP_practice","1","primeRacepractice","5","0","0","23","0","2430","0","0"
"032217","23:27:45","468","AMP_practice","1","primeNeutralpractice","6","0","0","18","1","1314","0","0"
"032217","23:27:45","468","AMP_practice","1","primeNeutralpractice","7","0","0","23","1","1356","0","0"
"032217","23:27:45","468","AMP_practice","1","primeRacepractice","8","0","0","23","0","1059","0","0"
"032217","23:27:45","468","AMP_practice","1","primeNeutralpractice","9","0","0","23","1","606","0","0"
"032217","23:27:45","468","AMP_practice","1","primeRacepractice","10","0","0","18","1","699","0","0"
"032217","23:27:45","468","AMP_practice","1","primeRacepractice","11","0","0","23","0","573","0","0"
"032217","23:27:45","468","AMP_practice","1","primeRacepractice","12","0","0","18","1","731","0","0"
"032217","23:27:45","468","AMP_practice","1","primeNeutralpractice","13","0","0","18","1","1396","0","0"
"032217","23:27:45","468","AMP_test","2","primeNeutral","2","1","13","23","1","1071","0","100"
"032217","23:27:45","468","AMP_test","2","primeRace","3","1","16","18","0","522","0","100"
"032217","23:27:45","468","AMP_test","2","primeRace","4","5","9","23","1","538","50","100"
"032217","23:27:45","468","AMP_test","2","primeNeutral","5","1","6","18","0","642","50","50"
"032217","23:27:45","468","AMP_test","2","primeRace","6","4","11","23","1","1038","66","50"
"032217","23:27:45","468","AMP_test","2","primeNeutral","7","1","20","18","0","962","66","33"
"032217","23:27:45","468","AMP_test","2","primeNeutral","8","1","15","18","0","953","66","25"
"032217","23:27:45","468","AMP_test","2","primeRace","9","3","19","23","1","1024","75","25"
"032217","23:27:45","468","AMP_test","2","primeNeutral","10","1","8","18","0","917","75","20"
"032217","23:27:45","468","AMP_test","2","primeRace","11","6","14","23","1","1270","80","20"
"032217","23:27:45","468","AMP_test","2","primeNeutral","12","1","12","18","0","1288","80","16"
"032217","23:27:45","468","AMP_test","2","primeNeutral","13","1","5","23","1","778","80","28"
"032217","23:27:45","468","AMP_test","2","primeRace","14","2","3","23","1","1121","83","28"
"032217","23:27:45","468","AMP_test","2","primeNeutral","15","1","14","18","0","625","83","25"
"032217","23:27:45","468","AMP_test","2","primeRace","16","1","13","23","1","662","85","25"
"032217","23:27:45","468","AMP_test","2","primeNeutral","17","1","17","23","1","553","85","33"
"032217","23:27:45","468","AMP_test","2","primeNeutral","18","1","8","18","0","744","85","30"
"032217","23:27:45","468","AMP_test","2","primeRace","19","5","15","18","0","944","75","30"
"032217","23:27:45","468","AMP_test","2","primeRace","20","1","20","18","0","720","66","30"
"032217","23:27:45","468","AMP_test","2","primeNeutral","21","1","18","23","1","577","66","36"
"032217","23:27:45","468","AMP_test","2","primeNeutral","22","1","9","23","1","479","66","41"
"032217","23:27:45","468","AMP_test","2","primeNeutral","23","1","4","18","0","586","66","38"
"032217","23:27:45","468","AMP_test","2","primeNeutral","24","1","11","18","0","824","66","35"
"032217","23:27:45","468","AMP_test","2","primeRace","25","3","19","23","1","581","70","35"
"032217","23:27:45","468","AMP_test","2","primeNeutral","26","1","16","23","1","795","70","40"
"032217","23:27:45","468","AMP_test","2","primeNeutral","27","1","6","23","1","505","70","43"
"032217","23:27:45","468","AMP_test","2","primeNeutral","28","1","1","18","0","402","70","41"
"032217","23:27:45","468","AMP_test","2","primeRace","29","6","2","18","0","648","63","41"
"032217","23:27:45","468","AMP_test","2","primeNeutral","30","1","7","23","1","508","63","44"
"032217","23:27:45","468","AMP_test","2","primeNeutral","31","1","10","18","0","589","63","42"
"032217","23:27:45","468","AMP_test","2","primeNeutral","32","1","20","18","0","619","63","40"
"032217","23:27:45","468","AMP_test","2","primeRace","33","4","14","18","0","679","58","40"
"032217","23:27:45","468","AMP_test","2","primeRace","34","2","10","18","0","602","53","40"
"032217","23:27:45","468","AMP_test","2","primeRace","35","6","3","23","1","679","57","40"
"032217","23:27:45","468","AMP_test","2","primeNeutral","36","1","18","18","0","626","57","38"
"032217","23:27:45","468","AMP_test","2","primeNeutral","37","1","8","23","1","662","57","40"
"032217","23:27:45","468","AMP_test","2","primeNeutral","38","1","12","23","1","506","57","43"
"032217","23:27:45","468","AMP_test","2","primeRace","39","4","6","23","1","515","60","43"
"032217","23:27:45","468","AMP_test","2","primeRace","40","1","13","23","1","628","62","43"
"032217","23:27:45","468","AMP_test","2","primeNeutral","41","1","5","18","0","601","62","41"
"032217","23:27:45","468","AMP_test","2","primeRace","42","2","4","18","0","590","58","41"
"032217","23:27:45","468","AMP_test","2","primeRace","43","3","1","18","0","620","55","41"
"032217","23:27:45","468","AMP_test","2","primeNeutral","44","1","2","23","1","625","55","44"
"032217","23:27:45","468","AMP_test","2","primeRace","45","5","15","18","0","765","52","44"
"032217","23:27:45","468","AMP_test","2","primeNeutral","46","1","19","18","0","645","52","42"
"032217","23:27:45","468","AMP_test","2","primeNeutral","47","1","17","23","1","472","52","44"
"032217","23:27:45","468","AMP_test","2","primeRace","48","5","7","23","1","539","55","44"
"032217","23:27:45","468","AMP_test","2","primeRace","49","1","16","18","0","507","52","44"
"032217","23:27:45","468","AMP_test","2","primeNeutral","50","1","9","23","1","404","52","46"
"032217","23:27:45","468","AMP_test","2","primeRace","51","4","11","23","1","466","54","46"
"032217","23:27:45","468","AMP_test","2","primeNeutral","52","1","13","23","1","413","54","48"
"032217","23:27:45","468","AMP_test","2","primeNeutral","53","1","11","23","1","402","54","50"
"032217","23:27:45","468","AMP_test","2","primeRace","54","3","17","23","1","407","56","50"
"032217","23:27:45","468","AMP_test","2","primeNeutral","55","1","7","18","0","541","56","48"
"032217","23:27:45","468","AMP_test","2","primeNeutral","56","1","1","18","0","485","56","46"
"032217","23:27:45","468","AMP_test","2","primeRace","57","6","5","23","1","527","58","46"
"032217","23:27:45","468","AMP_test","2","primeNeutral","58","1","20","18","0","391","58","45"
"032217","23:27:45","468","AMP_test","2","primeRace","59","2","16","23","1","373","60","45"
"032217","23:27:45","468","AMP_test","2","primeRace","60","4","3","23","1","260","61","45"
"032217","23:27:45","468","AMP_test","2","primeRace","61","3","18","18","0","271","59","45"
"032217","23:27:45","468","AMP_test","2","primeNeutral","62","1","2","18","0","474","59","44"
"032217","23:27:45","468","AMP_test","2","primeRace","63","2","4","18","0","564","57","44"
"032217","23:27:45","468","AMP_test","2","primeNeutral","64","1","14","23","1","427","57","45"
"032217","23:27:45","468","AMP_test","2","primeNeutral","65","1","19","23","1","488","57","47"
"032217","23:27:45","468","AMP_test","2","primeRace","66","6","9","23","1","442","58","47"
"032217","23:27:45","468","AMP_test","2","primeRace","67","5","12","18","0","502","56","47"
"032217","23:27:45","468","AMP_test","2","primeNeutral","68","1","6","23","1","343","56","48"
"032217","23:27:45","468","AMP_test","2","primeNeutral","69","1","15","18","0","343","56","47"
"032217","23:27:45","468","AMP_test","2","primeRace","70","1","8","23","1","399","58","47"
"032217","23:27:45","468","AMP_test","2","primeRace","71","1","10","23","1","661","59","47"
"032217","23:27:45","468","AMP_test","2","primeRace","72","2","16","18","0","448","57","47"
"032217","23:27:45","468","AMP_test","2","primeRace","73","4","17","23","1","452","58","47"
"032217","23:27:45","468","AMP_test","2","primeRace","74","3","9","23","1","488","60","47"
"032217","23:27:45","468","AMP_test","2","primeRace","75","5","12","18","0","449","58","47"
"032217","23:27:45","468","AMP_test","2","primeRace","76","6","1","18","0","549","56","47"
"032217","23:27:45","468","AMP_test","2","primeRace","77","6","15","23","1","605","57","47"
"032217","23:27:45","468","AMP_test","2","primeNeutral","78","1","18","18","0","906","57","46"
"032217","23:27:45","468","AMP_test","2","primeNeutral","79","1","4","23","1","563","57","47"
"032217","23:27:45","468","AMP_test","2","primeRace","80","5","14","18","0","787","56","47"
"032217","23:27:45","468","AMP_test","2","primeNeutral","81","1","7","23","1","632","56","48"
"032217","23:27:45","468","AMP_test","2","primeNeutral","82","1","8","23","1","452","56","50"
"032217","23:27:45","468","AMP_test","2","primeNeutral","83","1","3","23","1","464","56","51"
"032217","23:27:45","468","AMP_test","2","primeNeutral","84","1","20","23","1","403","56","52"
"032217","23:27:45","468","AMP_test","2","primeRace","85","2","10","23","1","552","57","52"
"032217","23:27:45","468","AMP_test","2","primeRace","86","1","5","18","0","495","56","52"
"032217","23:27:45","468","AMP_test","2","primeNeutral","87","1","11","23","1","521","56","53"
"032217","23:27:45","468","AMP_test","2","primeRace","88","3","19","23","1","874","57","53"
"032217","23:27:45","468","AMP_test","2","primeRace","89","4","6","23","1","917","58","53"
"032217","23:27:45","468","AMP_test","2","primeNeutral","90","1","13","23","1","533","58","54"
"032217","23:27:45","468","AMP_test","2","primeNeutral","91","1","2","23","1","541","58","55"
"032217","23:27:45","468","AMP_test","2","primeRace","92","2","1","18","0","405","56","55"
"032217","23:27:45","468","AMP_test","2","primeRace","93","5","20","18","0","610","55","55"
"032217","23:27:45","468","AMP_test","2","primeNeutral","94","1","4","18","0","424","55","54"
"032217","23:27:45","468","AMP_test","2","primeNeutral","95","1","15","23","1","556","55","55"
"032217","23:27:45","468","AMP_test","2","primeRace","96","3","2","23","1","403","56","55"
"032217","23:27:45","468","AMP_test","2","primeRace","97","4","7","18","0","513","55","55"
"032217","23:27:45","468","AMP_test","2","primeRace","98","6","17","23","1","394","56","55"
"032217","23:27:45","468","AMP_test","2","primeRace","99","1","19","23","1","1376","57","55"
"032217","23:27:45","468","AMP_test","2","primeRace","100","1","18","18","0","599","56","55"
"032217","23:27:45","468","AMP_test","2","primeNeutral","101","1","16","23","1","524","56","56"
"032217","19:27:17","464","AMP_practice","1","primeNeutralpractice","4","0","0","18","1","1677","0","0"
"032217","19:27:17","464","AMP_practice","1","primeRacepractice","5","0","0","23","0","2162","0","0"
"032217","19:27:17","464","AMP_practice","1","primeNeutralpractice","6","0","0","23","1","3526","0","0"
"032217","19:27:17","464","AMP_practice","1","primeRacepractice","7","0","0","23","0","1050","0","0"
"032217","19:27:17","464","AMP_practice","1","primeRacepractice","8","0","0","23","0","469","0","0"
"032217","19:27:17","464","AMP_practice","1","primeRacepractice","9","0","0","23","0","1008","0","0"
"032217","19:27:17","464","AMP_practice","1","primeNeutralpractice","10","0","0","23","1","2084","0","0"
"032217","19:27:17","464","AMP_practice","1","primeNeutralpractice","11","0","0","23","1","830","0","0"
"032217","19:27:17","464","AMP_practice","1","primeRacepractice","12","0","0","23","0","750","0","0"
"032217","19:27:17","464","AMP_practice","1","primeNeutralpractice","13","0","0","23","1","1140","0","0"
"032217","19:27:17","464","AMP_test","2","primeNeutral","2","1","3","23","1","1503","0","100"
"032217","19:27:17","464","AMP_test","2","primeNeutral","3","1","4","23","1","993","0","100"
"032217","19:27:17","464","AMP_test","2","primeRace","4","3","8","23","1","901","100","100"
"032217","19:27:17","464","AMP_test","2","primeRace","5","5","12","23","1","789","100","100"
"032217","19:27:17","464","AMP_test","2","primeRace","6","6","10","23","1","389","100","100"
"032217","19:27:17","464","AMP_test","2","primeNeutral","7","1","19","23","1","408","100","100"
"032217","19:27:17","464","AMP_test","2","primeRace","8","2","13","18","0","911","75","100"
"032217","19:27:17","464","AMP_test","2","primeNeutral","9","1","1","23","1","627","75","100"
"032217","19:27:17","464","AMP_test","2","primeNeutral","10","1","16","23","1","466","75","100"
"032217","19:27:17","464","AMP_test","2","primeRace","11","1","17","23","1","608","80","100"
"032217","19:27:17","464","AMP_test","2","primeNeutral","12","1","3","23","1","471","80","100"
"032217","19:27:17","464","AMP_test","2","primeRace","13","4","4","23","1","500","83","100"
"032217","19:27:17","464","AMP_test","2","primeNeutral","14","1","11","23","1","623","83","100"
"032217","19:27:17","464","AMP_test","2","primeRace","15","3","5","23","1","773","85","100"
"032217","19:27:17","464","AMP_test","2","primeNeutral","16","1","8","23","1","508","85","100"
"032217","19:27:17","464","AMP_test","2","primeRace","17","4","20","23","1","462","87","100"
"032217","19:27:17","464","AMP_test","2","primeRace","18","1","1","23","1","462","88","100"
"032217","19:27:17","464","AMP_test","2","primeRace","19","5","10","23","1","479","90","100"
"032217","19:27:17","464","AMP_test","2","primeNeutral","20","1","16","23","1","472","90","100"
"032217","19:27:17","464","AMP_test","2","primeRace","21","3","13","23","1","464","90","100"
"032217","19:27:17","464","AMP_test","2","primeNeutral","22","1","18","23","1","629","90","100"
"032217","19:27:17","464","AMP_test","2","primeRace","23","2","9","23","1","599","91","100"
"032217","19:27:17","464","AMP_test","2","primeRace","24","6","2","23","1","610","92","100"
"032217","19:27:17","464","AMP_test","2","primeRace","25","3","15","23","1","978","92","100"
"032217","19:27:17","464","AMP_test","2","primeRace","26","5","6","23","1","478","93","100"
"032217","19:27:17","464","AMP_test","2","primeNeutral","27","1","12","18","0","476","93","90"
"032217","19:27:17","464","AMP_test","2","primeRace","28","2","19","23","1","414","93","90"
"032217","19:27:17","464","AMP_test","2","primeRace","29","1","7","23","1","1098","94","90"
"032217","19:27:17","464","AMP_test","2","primeNeutral","30","1","17","23","1","994","94","91"
"032217","19:27:17","464","AMP_test","2","primeRace","31","4","14","23","1","895","94","91"
"032217","19:27:17","464","AMP_test","2","primeNeutral","32","1","1","23","1","596","94","92"
"032217","19:27:17","464","AMP_test","2","primeNeutral","33","1","11","23","1","743","94","92"
"032217","19:27:17","464","AMP_test","2","primeNeutral","34","1","4","23","1","1039","94","93"
"032217","19:27:17","464","AMP_test","2","primeRace","35","6","14","23","1","736","94","93"
"032217","19:27:17","464","AMP_test","2","primeNeutral","36","1","10","18","0","1996","94","87"
"032217","19:27:17","464","AMP_test","2","primeNeutral","37","1","16","18","0","1124","94","82"
"032217","19:27:17","464","AMP_test","2","primeRace","38","5","15","23","1","423","95","82"
"032217","19:27:17","464","AMP_test","2","primeRace","39","2","6","23","1","406","95","82"
"032217","19:27:17","464","AMP_test","2","primeRace","40","6","9","18","0","351","90","82"
"032217","19:27:17","464","AMP_test","2","primeRace","41","3","5","23","1","413","91","82"
"032217","19:27:17","464","AMP_test","2","primeNeutral","42","1","20","18","0","954","91","77"
"032217","19:27:17","464","AMP_test","2","primeNeutral","43","1","8","18","0","880","91","73"
"032217","19:27:17","464","AMP_test","2","primeNeutral","44","1","2","18","0","597","91","70"
"032217","19:27:17","464","AMP_test","2","primeNeutral","45","1","3","18","0","677","91","66"
"032217","19:27:17","464","AMP_test","2","primeNeutral","46","1","13","18","0","541","91","63"
"032217","19:27:17","464","AMP_test","2","primeNeutral","47","1","17","18","0","610","91","60"
"032217","19:27:17","464","AMP_test","2","primeNeutral","48","1","19","18","0","554","91","58"
"032217","19:27:17","464","AMP_test","2","primeNeutral","49","1","7","18","0","457","91","56"
"032217","19:27:17","464","AMP_test","2","primeNeutral","50","1","12","18","0","460","91","53"
"032217","19:27:17","464","AMP_test","2","primeNeutral","51","1","18","18","0","418","91","51"
"032217","19:27:17","464","AMP_test","2","primeNeutral","52","1","14","18","0","519","91","50"
"032217","19:27:17","464","AMP_test","2","primeRace","53","1","11","23","1","422","91","50"
"032217","19:27:17","464","AMP_test","2","primeNeutral","54","1","10","18","0","565","91","48"
"032217","19:27:17","464","AMP_test","2","primeNeutral","55","1","6","18","0","475","91","46"
"032217","19:27:17","464","AMP_test","2","primeRace","56","4","5","23","1","392","92","46"
"032217","19:27:17","464","AMP_test","2","primeRace","57","4","19","23","1","383","92","46"
"032217","19:27:17","464","AMP_test","2","primeNeutral","58","1","9","18","0","550","92","45"
"032217","19:27:17","464","AMP_test","2","primeRace","59","2","7","23","1","377","92","45"
"032217","19:27:17","464","AMP_test","2","primeRace","60","3","12","23","1","335","92","45"
"032217","19:27:17","464","AMP_test","2","primeNeutral","61","1","15","18","0","771","92","43"
"032217","19:27:17","464","AMP_test","2","primeNeutral","62","1","13","18","0","464","92","42"
"032217","19:27:17","464","AMP_test","2","primeNeutral","63","1","8","18","0","390","92","41"
"032217","19:27:17","464","AMP_test","2","primeRace","64","1","20","23","1","405","93","41"
"032217","19:27:17","464","AMP_test","2","primeNeutral","65","1","18","18","0","1275","93","40"
"032217","19:27:17","464","AMP_test","2","primeRace","66","6","3","23","1","352","93","40"
"032217","19:27:17","464","AMP_test","2","primeRace","67","5","17","23","1","400","93","40"
"032217","19:27:17","464","AMP_test","2","primeRace","68","6","2","23","1","394","93","40"
"032217","19:27:17","464","AMP_test","2","primeNeutral","69","1","1","23","1","1408","93","41"
"032217","19:27:17","464","AMP_test","2","primeRace","70","5","4","23","1","429","93","41"
"032217","19:27:17","464","AMP_test","2","primeNeutral","71","1","16","18","0","695","93","40"
"032217","19:27:17","464","AMP_test","2","primeRace","72","4","9","23","1","365","94","40"
"032217","19:27:17","464","AMP_test","2","primeNeutral","73","1","19","18","0","571","94","39"
"032217","19:27:17","464","AMP_test","2","primeRace","74","3","6","23","1","325","94","39"
"032217","19:27:17","464","AMP_test","2","primeNeutral","75","1","7","18","0","473","94","38"
"032217","19:27:17","464","AMP_test","2","primeRace","76","1","18","23","1","355","94","38"
"032217","19:27:17","464","AMP_test","2","primeNeutral","77","1","13","18","0","486","94","37"
"032217","19:27:17","464","AMP_test","2","primeNeutral","78","1","1","18","0","536","94","36"
"032217","19:27:17","464","AMP_test","2","primeRace","79","2","14","23","1","386","94","36"
"032217","19:27:17","464","AMP_test","2","primeNeutral","80","1","5","18","0","518","94","35"
"032217","19:27:17","464","AMP_test","2","primeNeutral","81","1","2","18","0","536","94","34"
"032217","19:27:17","464","AMP_test","2","primeRace","82","5","8","23","1","777","94","34"
"032217","19:27:17","464","AMP_test","2","primeNeutral","83","1","10","18","0","495","94","34"
"032217","19:27:17","464","AMP_test","2","primeRace","84","6","11","23","1","335","94","34"
"032217","19:27:17","464","AMP_test","2","primeRace","85","2","20","23","1","365","95","34"
"032217","19:27:17","464","AMP_test","2","primeNeutral","86","1","4","18","0","584","95","33"
"032217","19:27:17","464","AMP_test","2","primeRace","87","3","12","23","1","461","95","33"
"032217","19:27:17","464","AMP_test","2","primeRace","88","4","16","23","1","325","95","33"
"032217","19:27:17","464","AMP_test","2","primeRace","89","1","15","23","1","321","95","33"
"032217","19:27:17","464","AMP_test","2","primeNeutral","90","1","17","18","0","615","95","32"
"032217","19:27:17","464","AMP_test","2","primeNeutral","91","1","3","18","0","521","95","31"
"032217","19:27:17","464","AMP_test","2","primeRace","92","5","4","23","1","321","95","31"
"032217","19:27:17","464","AMP_test","2","primeRace","93","6","9","23","1","327","95","31"
"032217","19:27:17","464","AMP_test","2","primeRace","94","2","20","23","1","315","95","31"
"032217","19:27:17","464","AMP_test","2","primeRace","95","1","19","23","1","278","95","31"
"032217","19:27:17","464","AMP_test","2","primeNeutral","96","1","10","18","0","390","95","31"
"032217","19:27:17","464","AMP_test","2","primeNeutral","97","1","1","18","0","415","95","30"
"032217","19:27:17","464","AMP_test","2","primeNeutral","98","1","15","18","0","416","95","30"
"032217","19:27:17","464","AMP_test","2","primeRace","99","4","17","23","1","292","95","30"
"032217","19:27:17","464","AMP_test","2","primeRace","100","3","5","23","1","321","95","30"
"032217","19:27:17","464","AMP_test","2","primeRace","101","3","14","23","1","323","96","30"
"032217","23:27:06","454","AMP_practice","1","primeRacepractice","4","0","0","18","1","11983","0","0"
"032217","23:27:06","454","AMP_practice","1","primeNeutralpractice","5","0","0","23","1","2098","0","0"
"032217","23:27:06","454","AMP_practice","1","primeNeutralpractice","6","0","0","23","1","1277","0","0"
"032217","23:27:06","454","AMP_practice","1","primeRacepractice","7","0","0","18","1","2297","0","0"
"032217","23:27:06","454","AMP_practice","1","primeNeutralpractice","8","0","0","23","1","624","0","0"
"032217","23:27:06","454","AMP_practice","1","primeRacepractice","9","0","0","18","1","1572","0","0"
"032217","23:27:06","454","AMP_practice","1","primeRacepractice","10","0","0","23","0","2688","0","0"
"032217","23:27:06","454","AMP_practice","1","primeNeutralpractice","11","0","0","23","1","1296","0","0"
"032217","23:27:06","454","AMP_practice","1","primeNeutralpractice","12","0","0","23","1","562","0","0"
"032217","23:27:06","454","AMP_practice","1","primeRacepractice","13","0","0","23","0","2737","0","0"
"032217","23:27:06","454","AMP_test","2","primeNeutral","2","1","16","23","1","873","0","100"
"032217","23:27:06","454","AMP_test","2","primeRace","3","6","13","23","1","691","100","100"
"032217","23:27:06","454","AMP_test","2","primeRace","4","6","15","23","1","638","100","100"
"032217","23:27:06","454","AMP_test","2","primeNeutral","5","1","9","18","0","720","100","50"
"032217","23:27:06","454","AMP_test","2","primeNeutral","6","1","4","23","1","1421","100","66"
"032217","23:27:06","454","AMP_test","2","primeNeutral","7","1","1","18","0","722","100","50"
"032217","23:27:06","454","AMP_test","2","primeRace","8","5","11","23","1","441","100","50"
"032217","23:27:06","454","AMP_test","2","primeRace","9","4","17","23","1","351","100","50"
"032217","23:27:06","454","AMP_test","2","primeRace","10","3","5","23","1","395","100","50"
"032217","23:27:06","454","AMP_test","2","primeNeutral","11","1","10","18","0","721","100","40"
"032217","23:27:06","454","AMP_test","2","primeRace","12","1","10","23","1","418","100","40"
"032217","23:27:06","454","AMP_test","2","primeRace","13","2","14","23","1","729","100","40"
"032217","23:27:06","454","AMP_test","2","primeNeutral","14","1","4","18","0","708","100","33"
"032217","23:27:06","454","AMP_test","2","primeRace","15","4","9","23","1","587","100","33"
"032217","23:27:06","454","AMP_test","2","primeRace","16","3","7","23","1","626","100","33"
"032217","23:27:06","454","AMP_test","2","primeRace","17","2","15","23","1","730","100","33"
"032217","23:27:06","454","AMP_test","2","primeNeutral","18","1","3","18","0","343","100","28"
"032217","23:27:06","454","AMP_test","2","primeNeutral","19","1","6","18","0","565","100","25"
"032217","23:27:06","454","AMP_test","2","primeRace","20","5","16","23","1","329","100","25"
"032217","23:27:06","454","AMP_test","2","primeRace","21","6","20","23","1","341","100","25"
"032217","23:27:06","454","AMP_test","2","primeNeutral","22","1","8","18","0","439","100","22"
"032217","23:27:06","454","AMP_test","2","primeNeutral","23","1","5","18","0","463","100","20"
"032217","23:27:06","454","AMP_test","2","primeNeutral","24","1","19","18","0","377","100","18"
"032217","23:27:06","454","AMP_test","2","primeRace","25","1","1","23","1","344","100","18"
"032217","23:27:06","454","AMP_test","2","primeNeutral","26","1","11","18","0","449","100","16"
"032217","23:27:06","454","AMP_test","2","primeRace","27","2","18","23","1","321","100","16"
"032217","23:27:06","454","AMP_test","2","primeRace","28","4","17","23","1","1195","100","16"
"032217","23:27:06","454","AMP_test","2","primeNeutral","29","1","13","18","0","476","100","15"
"032217","23:27:06","454","AMP_test","2","primeRace","30","1","12","23","1","486","100","15"
"032217","23:27:06","454","AMP_test","2","primeNeutral","31","1","2","18","0","407","100","14"
"032217","23:27:06","454","AMP_test","2","primeNeutral","32","1","7","23","1","589","100","20"
"032217","23:27:06","454","AMP_test","2","primeNeutral","33","1","19","18","0","1002","100","18"
"032217","23:27:06","454","AMP_test","2","primeRace","34","5","8","23","1","399","100","18"
"032217","23:27:06","454","AMP_test","2","primeRace","35","6","16","23","1","371","100","18"
"032217","23:27:06","454","AMP_test","2","primeNeutral","36","1","3","18","0","516","100","17"
"032217","23:27:06","454","AMP_test","2","primeNeutral","37","1","5","23","1","512","100","22"
"032217","23:27:06","454","AMP_test","2","primeRace","38","3","12","23","1","347","100","22"
"032217","23:27:06","454","AMP_test","2","primeRace","39","4","17","23","1","157","100","22"
"032217","23:27:06","454","AMP_test","2","primeRace","40","5","14","23","1","313","100","22"
"032217","23:27:06","454","AMP_test","2","primeRace","41","1","13","23","1","217","100","22"
"032217","23:27:06","454","AMP_test","2","primeNeutral","42","1","18","18","0","286","100","21"
"032217","23:27:06","454","AMP_test","2","primeNeutral","43","1","2","18","0","432","100","20"
"032217","23:27:06","454","AMP_test","2","primeNeutral","44","1","15","18","0","342","100","19"
"032217","23:27:06","454","AMP_test","2","primeRace","45","2","4","23","1","265","100","19"
"032217","23:27:06","454","AMP_test","2","primeRace","46","3","10","23","1","304","100","19"
"032217","23:27:06","454","AMP_test","2","primeNeutral","47","1","20","18","0","585","100","18"
"032217","23:27:06","454","AMP_test","2","primeNeutral","48","1","9","18","0","486","100","17"
"032217","23:27:06","454","AMP_test","2","primeRace","49","6","1","23","1","300","100","17"
"032217","23:27:06","454","AMP_test","2","primeRace","50","1","11","23","1","320","100","17"
"032217","23:27:06","454","AMP_test","2","primeRace","51","2","6","23","1","189","100","17"
"032217","23:27:06","454","AMP_test","2","primeNeutral","52","1","1","18","0","413","100","16"
"032217","23:27:06","454","AMP_test","2","primeRace","53","5","19","23","1","276","100","16"
"032217","23:27:06","454","AMP_test","2","primeNeutral","54","1","6","18","0","388","100","16"
"032217","23:27:06","454","AMP_test","2","primeRace","55","6","10","18","0","318","96","16"
"032217","23:27:06","454","AMP_test","2","primeNeutral","56","1","14","18","0","408","96","15"
"032217","23:27:06","454","AMP_test","2","primeRace","57","4","17","23","1","253","96","15"
"032217","23:27:06","454","AMP_test","2","primeRace","58","3","12","23","1","245","96","15"
"032217","23:27:06","454","AMP_test","2","primeNeutral","59","1","18","23","1","245","96","18"
"032217","23:27:06","454","AMP_test","2","primeRace","60","6","20","23","1","368","96","18"
"032217","23:27:06","454","AMP_test","2","primeNeutral","61","1","9","18","0","405","96","17"
"032217","23:27:06","454","AMP_test","2","primeRace","62","2","16","23","1","404","96","17"
"032217","23:27:06","454","AMP_test","2","primeRace","63","3","8","23","1","470","97","17"
"032217","23:27:06","454","AMP_test","2","primeRace","64","4","7","23","1","170","97","17"
"032217","23:27:06","454","AMP_test","2","primeNeutral","65","1","3","23","1","561","97","20"
"032217","23:27:06","454","AMP_test","2","primeRace","66","1","5","23","1","359","97","20"
"032217","23:27:06","454","AMP_test","2","primeNeutral","67","1","15","18","0","397","97","20"
"032217","23:27:06","454","AMP_test","2","primeNeutral","68","1","13","18","0","419","97","19"
"032217","23:27:06","454","AMP_test","2","primeRace","69","5","4","23","1","206","97","19"
"032217","23:27:06","454","AMP_test","2","primeNeutral","70","1","2","18","0","344","97","18"
"032217","23:27:06","454","AMP_test","2","primeRace","71","6","11","23","1","337","97","18"
"032217","23:27:06","454","AMP_test","2","primeNeutral","72","1","16","23","1","438","97","21"
"032217","23:27:06","454","AMP_test","2","primeRace","73","5","12","23","1","475","97","21"
"032217","23:27:06","454","AMP_test","2","primeRace","74","3","15","23","1","346","97","21"
"032217","23:27:06","454","AMP_test","2","primeNeutral","75","1","20","18","0","391","97","20"
"032217","23:27:06","454","AMP_test","2","primeNeutral","76","1","4","18","0","469","97","20"
"032217","23:27:06","454","AMP_test","2","primeRace","77","2","17","23","1","184","97","20"
"032217","23:27:06","454","AMP_test","2","primeNeutral","78","1","8","18","0","578","97","19"
"032217","23:27:06","454","AMP_test","2","primeNeutral","79","1","19","18","0","396","97","18"
"032217","23:27:06","454","AMP_test","2","primeRace","80","1","10","23","1","176","97","18"
"032217","23:27:06","454","AMP_test","2","primeNeutral","81","1","11","18","0","410","97","18"
"032217","23:27:06","454","AMP_test","2","primeRace","82","4","18","23","1","196","97","18"
"032217","23:27:06","454","AMP_test","2","primeNeutral","83","1","1","18","0","358","97","17"
"032217","23:27:06","454","AMP_test","2","primeNeutral","84","1","13","18","0","318","97","17"
"032217","23:27:06","454","AMP_test","2","primeRace","85","3","14","23","1","117","97","17"
"032217","23:27:06","454","AMP_test","2","primeNeutral","86","1","2","18","0","355","97","17"
"032217","23:27:06","454","AMP_test","2","primeRace","87","1","9","23","1","111","97","17"
"032217","23:27:06","454","AMP_test","2","primeNeutral","88","1","6","18","0","210","97","16"
"032217","23:27:06","454","AMP_test","2","primeRace","89","2","7","23","1","177","97","16"
"032217","23:27:06","454","AMP_test","2","primeNeutral","90","1","3","18","0","331","97","16"
"032217","23:27:06","454","AMP_test","2","primeRace","91","6","5","23","1","133","97","16"
"032217","23:27:06","454","AMP_test","2","primeNeutral","92","1","5","18","0","248","97","15"
"032217","23:27:06","454","AMP_test","2","primeNeutral","93","1","17","18","0","313","97","15"
"032217","23:27:06","454","AMP_test","2","primeRace","94","5","3","23","1","237","97","15"
"032217","23:27:06","454","AMP_test","2","primeNeutral","95","1","7","23","1","445","97","17"
"032217","23:27:06","454","AMP_test","2","primeNeutral","96","1","2","18","0","485","97","17"
"032217","23:27:06","454","AMP_test","2","primeNeutral","97","1","4","18","0","365","97","16"
"032217","23:27:06","454","AMP_test","2","primeRace","98","4","13","23","1","346","97","16"
"032217","23:27:06","454","AMP_test","2","primeNeutral","99","1","20","18","0","501","97","16"
"032217","23:27:06","454","AMP_test","2","primeNeutral","100","1","10","18","0","290","97","16"
"032217","23:27:06","454","AMP_test","2","primeRace","101","4","14","23","1","297","98","16"
"032217","19:27:28","471","AMP_practice","1","primeRacepractice","4","0","0","23","0","3651","0","0"
"032217","19:27:28","471","AMP_practice","1","primeRacepractice","5","0","0","23","0","810","0","0"
"032217","19:27:28","471","AMP_practice","1","primeNeutralpractice","6","0","0","23","1","1170","0","0"
"032217","19:27:28","471","AMP_practice","1","primeNeutralpractice","7","0","0","23","1","448","0","0"
"032217","19:27:28","471","AMP_practice","1","primeNeutralpractice","8","0","0","18","1","1025","0","0"
"032217","19:27:28","471","AMP_practice","1","primeRacepractice","9","0","0","23","0","1622","0","0"
"032217","19:27:28","471","AMP_practice","1","primeRacepractice","10","0","0","23","0","1079","0","0"
"032217","19:27:28","471","AMP_practice","1","primeRacepractice","11","0","0","23","0","827","0","0"
"032217","19:27:28","471","AMP_practice","1","primeNeutralpractice","12","0","0","18","1","1659","0","0"
"032217","19:27:28","471","AMP_practice","1","primeNeutralpractice","13","0","0","18","1","684","0","0"
"032217","19:27:28","471","AMP_test","2","primeNeutral","2","1","3","23","1","1086","0","100"
"032217","19:27:28","471","AMP_test","2","primeRace","3","5","2","23","1","552","100","100"
"032217","19:27:28","471","AMP_test","2","primeNeutral","4","1","1","23","1","453","100","100"
"032217","19:27:28","471","AMP_test","2","primeRace","5","2","15","23","1","413","100","100"
"032217","19:27:28","471","AMP_test","2","primeRace","6","6","17","18","0","332","66","100"
"032217","19:27:28","471","AMP_test","2","primeNeutral","7","1","4","23","1","309","66","100"
"032217","19:27:28","471","AMP_test","2","primeRace","8","5","9","23","1","885","75","100"
"032217","19:27:28","471","AMP_test","2","primeRace","9","3","10","23","1","403","80","100"
"032217","19:27:28","471","AMP_test","2","primeNeutral","10","1","14","23","1","382","80","100"
"032217","19:27:28","471","AMP_test","2","primeNeutral","11","1","19","23","1","508","80","100"
"032217","19:27:28","471","AMP_test","2","primeNeutral","12","1","13","23","1","1087","80","100"
"032217","19:27:28","471","AMP_test","2","primeNeutral","13","1","16","23","1","503","80","100"
"032217","19:27:28","471","AMP_test","2","primeRace","14","1","12","23","1","359","83","100"
"032217","19:27:28","471","AMP_test","2","primeNeutral","15","1","17","18","0","344","83","87"
"032217","19:27:28","471","AMP_test","2","primeRace","16","4","1","23","1","328","85","87"
"032217","19:27:28","471","AMP_test","2","primeRace","17","1","3","23","1","748","87","87"
"032217","19:27:28","471","AMP_test","2","primeRace","18","2","20","23","1","347","88","87"
"032217","19:27:28","471","AMP_test","2","primeNeutral","19","1","4","23","1","614","88","88"
"032217","19:27:28","471","AMP_test","2","primeNeutral","20","1","11","23","1","351","88","90"
"032217","19:27:28","471","AMP_test","2","primeRace","21","3","10","23","1","442","90","90"
"032217","19:27:28","471","AMP_test","2","primeRace","22","5","6","18","0","425","81","90"
"032217","19:27:28","471","AMP_test","2","primeRace","23","6","15","23","1","598","83","90"
"032217","19:27:28","471","AMP_test","2","primeNeutral","24","1","18","23","1","355","83","90"
"032217","19:27:28","471","AMP_test","2","primeRace","25","4","9","18","0","2469","76","90"
"032217","19:27:28","471","AMP_test","2","primeNeutral","26","1","5","23","1","600","76","91"
"032217","19:27:28","471","AMP_test","2","primeNeutral","27","1","2","18","0","822","76","84"
"032217","19:27:28","471","AMP_test","2","primeNeutral","28","1","19","23","1","488","76","85"
"032217","19:27:28","471","AMP_test","2","primeRace","29","4","7","23","1","345","78","85"
"032217","19:27:28","471","AMP_test","2","primeNeutral","30","1","14","23","1","314","78","86"
"032217","19:27:28","471","AMP_test","2","primeRace","31","1","8","23","1","479","80","86"
"032217","19:27:28","471","AMP_test","2","primeRace","32","2","16","23","1","580","81","86"
"032217","19:27:28","471","AMP_test","2","primeNeutral","33","1","15","23","1","501","81","87"
"032217","19:27:28","471","AMP_test","2","primeNeutral","34","1","10","23","1","546","81","88"
"032217","19:27:28","471","AMP_test","2","primeNeutral","35","1","13","23","1","899","81","88"
"032217","19:27:28","471","AMP_test","2","primeNeutral","36","1","7","23","1","519","81","89"
"032217","19:27:28","471","AMP_test","2","primeRace","37","5","11","23","1","537","82","89"
"032217","19:27:28","471","AMP_test","2","primeRace","38","6","12","23","1","479","83","89"
"032217","19:27:28","471","AMP_test","2","primeRace","39","3","18","18","0","491","78","89"
"032217","19:27:28","471","AMP_test","2","primeNeutral","40","1","1","23","1","372","78","90"
"032217","19:27:28","471","AMP_test","2","primeRace","41","3","4","23","1","420","80","90"
"032217","19:27:28","471","AMP_test","2","primeRace","42","1","17","18","0","550","76","90"
"032217","19:27:28","471","AMP_test","2","primeRace","43","2","20","23","1","307","77","90"
"032217","19:27:28","471","AMP_test","2","primeNeutral","44","1","8","23","1","421","77","90"
"032217","19:27:28","471","AMP_test","2","primeNeutral","45","1","19","23","1","273","77","90"
"032217","19:27:28","471","AMP_test","2","primeNeutral","46","1","5","23","1","229","77","91"
"032217","19:27:28","471","AMP_test","2","primeRace","47","6","14","23","1","316","78","91"
"032217","19:27:28","471","AMP_test","2","primeRace","48","5","3","23","1","748","79","91"
"032217","19:27:28","471","AMP_test","2","primeNeutral","49","1","9","23","1","766","79","91"
"032217","19:27:28","471","AMP_test","2","primeRace","50","4","2","18","0","785","76","91"
"032217","19:27:28","471","AMP_test","2","primeNeutral","51","1","6","18","0","678","76","88"
"032217","19:27:28","471","AMP_test","2","primeNeutral","52","1","9","18","0","315","76","84"
"032217","19:27:28","471","AMP_test","2","primeNeutral","53","1","2","18","0","483","76","81"
"032217","19:27:28","471","AMP_test","2","primeNeutral","54","1","7","23","1","450","76","82"
"032217","19:27:28","471","AMP_test","2","primeRace","55","4","3","23","1","459","76","82"
"032217","19:27:28","471","AMP_test","2","primeNeutral","56","1","4","18","0","626","76","79"
"032217","19:27:28","471","AMP_test","2","primeRace","57","6","6","18","0","352","74","79"
"032217","19:27:28","471","AMP_test","2","primeNeutral","58","1","17","18","0","384","74","76"
"032217","19:27:28","471","AMP_test","2","primeNeutral","59","1","1","23","1","571","74","77"
"032217","19:27:28","471","AMP_test","2","primeNeutral","60","1","5","23","1","412","74","78"
"032217","19:27:28","471","AMP_test","2","primeRace","61","2","12","23","1","292","75","78"
"032217","19:27:28","471","AMP_test","2","primeRace","62","1","14","23","1","273","75","78"
"032217","19:27:28","471","AMP_test","2","primeRace","63","5","18","23","1","297","76","78"
"032217","19:27:28","471","AMP_test","2","primeRace","64","3","13","23","1","407","77","78"
"032217","19:27:28","471","AMP_test","2","primeNeutral","65","1","16","23","1","216","77","78"
"032217","19:27:28","471","AMP_test","2","primeNeutral","66","1","20","23","1","129","77","79"
"032217","19:27:28","471","AMP_test","2","primeRace","67","1","11","23","1","234","78","79"
"032217","19:27:28","471","AMP_test","2","primeRace","68","6","8","23","1","257","78","79"
"032217","19:27:28","471","AMP_test","2","primeNeutral","69","1","15","23","1","196","78","80"
"032217","19:27:28","471","AMP_test","2","primeNeutral","70","1","10","23","1","213","78","80"
"032217","19:27:28","471","AMP_test","2","primeNeutral","71","1","19","23","1","355","78","81"
"032217","19:27:28","471","AMP_test","2","primeRace","72","5","11","23","1","257","79","81"
"032217","19:27:28","471","AMP_test","2","primeRace","73","3","13","23","1","282","80","81"
"032217","19:27:28","471","AMP_test","2","primeNeutral","74","1","7","23","1","259","80","81"
"032217","19:27:28","471","AMP_test","2","primeRace","75","4","15","23","1","130","80","81"
"032217","19:27:28","471","AMP_test","2","primeRace","76","2","5","23","1","206","81","81"
"032217","19:27:28","471","AMP_test","2","primeRace","77","1","19","23","1","56","81","81"
"032217","19:27:28","471","AMP_test","2","primeNeutral","78","1","9","23","1","103","81","82"
"032217","19:27:28","471","AMP_test","2","primeRace","79","2","16","23","1","267","82","82"
"032217","19:27:28","471","AMP_test","2","primeRace","80","3","20","23","1","284","82","82"
"032217","19:27:28","471","AMP_test","2","primeNeutral","81","1","1","23","1","293","82","82"
"032217","19:27:28","471","AMP_test","2","primeRace","82","4","10","23","1","280","82","82"
"032217","19:27:28","471","AMP_test","2","primeNeutral","83","1","14","23","1","223","82","82"
"032217","19:27:28","471","AMP_test","2","primeNeutral","84","1","18","23","1","177","82","83"
"032217","19:27:28","471","AMP_test","2","primeRace","85","5","8","23","1","307","83","83"
"032217","19:27:28","471","AMP_test","2","primeNeutral","86","1","2","18","0","382","83","81"
"032217","19:27:28","471","AMP_test","2","primeRace","87","6","3","23","1","254","83","81"
"032217","19:27:28","471","AMP_test","2","primeNeutral","88","1","12","23","1","315","83","81"
"032217","19:27:28","471","AMP_test","2","primeNeutral","89","1","17","18","0","349","83","80"
"032217","19:27:28","471","AMP_test","2","primeRace","90","5","6","23","1","74","84","80"
"032217","19:27:28","471","AMP_test","2","primeNeutral","91","1","4","23","1","515","84","80"
"032217","19:27:28","471","AMP_test","2","primeRace","92","2","19","23","1","392","84","80"
"032217","19:27:28","471","AMP_test","2","primeNeutral","93","1","18","23","1","133","84","80"
"032217","19:27:28","471","AMP_test","2","primeNeutral","94","1","20","23","1","2007","84","81"
"032217","19:27:28","471","AMP_test","2","primeNeutral","95","1","17","18","0","406","84","79"
"032217","19:27:28","471","AMP_test","2","primeRace","96","6","8","23","1","225","84","79"
"032217","19:27:28","471","AMP_test","2","primeNeutral","97","1","13","23","1","149","84","80"
"032217","19:27:28","471","AMP_test","2","primeRace","98","1","3","23","1","61","85","80"
"032217","19:27:28","471","AMP_test","2","primeRace","99","4","14","23","1","57","85","80"
"032217","19:27:28","471","AMP_test","2","primeRace","100","3","1","23","1","90","85","80"
"032217","19:27:28","471","AMP_test","2","primeRace","101","6","11","23","1","170","86","80"
"032217","16:27:31","465","AMP_practice","1","primeNeutralpractice","4","0","0","23","1","2856","0","0"
"032217","16:27:31","465","AMP_practice","1","primeRacepractice","5","0","0","18","1","648","0","0"
"032217","16:27:31","465","AMP_practice","1","primeNeutralpractice","6","0","0","18","1","731","0","0"
"032217","16:27:31","465","AMP_practice","1","primeRacepractice","7","0","0","23","0","626","0","0"
"032217","16:27:31","465","AMP_practice","1","primeRacepractice","8","0","0","23","0","373","0","0"
"032217","16:27:31","465","AMP_practice","1","primeRacepractice","9","0","0","23","0","451","0","0"
"032217","16:27:31","465","AMP_practice","1","primeNeutralpractice","10","0","0","18","1","542","0","0"
"032217","16:27:31","465","AMP_practice","1","primeNeutralpractice","11","0","0","18","1","429","0","0"
"032217","16:27:31","465","AMP_practice","1","primeRacepractice","12","0","0","18","1","376","0","0"
"032217","16:27:31","465","AMP_practice","1","primeNeutralpractice","13","0","0","18","1","534","0","0"
"032217","16:27:31","465","AMP_test","2","primeNeutral","2","1","14","18","0","418","0","0"
"032217","16:27:31","465","AMP_test","2","primeNeutral","3","1","10","18","0","319","0","0"
"032217","16:27:31","465","AMP_test","2","primeNeutral","4","1","1","18","0","383","0","0"
"032217","16:27:31","465","AMP_test","2","primeRace","5","1","9","23","1","269","100","0"
"032217","16:27:31","465","AMP_test","2","primeNeutral","6","1","13","23","1","535","100","25"
"032217","16:27:31","465","AMP_test","2","primeRace","7","2","16","18","0","359","50","25"
"032217","16:27:31","465","AMP_test","2","primeNeutral","8","1","5","23","1","404","50","40"
"032217","16:27:31","465","AMP_test","2","primeRace","9","4","19","23","1","345","66","40"
"032217","16:27:31","465","AMP_test","2","primeRace","10","6","2","18","0","312","50","40"
"032217","16:27:31","465","AMP_test","2","primeNeutral","11","1","8","23","1","344","50","50"
"032217","16:27:31","465","AMP_test","2","primeRace","12","1","7","18","0","327","40","50"
"032217","16:27:31","465","AMP_test","2","primeRace","13","3","15","18","0","375","33","50"
"032217","16:27:31","465","AMP_test","2","primeNeutral","14","1","16","23","1","260","33","57"
"032217","16:27:31","465","AMP_test","2","primeRace","15","5","9","23","1","526","42","57"
"032217","16:27:31","465","AMP_test","2","primeNeutral","16","1","1","23","1","358","42","62"
"032217","16:27:31","465","AMP_test","2","primeNeutral","17","1","17","23","1","572","42","66"
"032217","16:27:31","465","AMP_test","2","primeNeutral","18","1","20","18","0","569","42","60"
"032217","16:27:31","465","AMP_test","2","primeNeutral","19","1","13","18","0","296","42","54"
"032217","16:27:31","465","AMP_test","2","primeRace","20","5","8","23","1","273","50","54"
"032217","16:27:31","465","AMP_test","2","primeRace","21","1","2","18","0","426","44","54"
"032217","16:27:31","465","AMP_test","2","primeNeutral","22","1","19","18","0","374","44","50"
"032217","16:27:31","465","AMP_test","2","primeNeutral","23","1","5","18","0","475","44","46"
"032217","16:27:31","465","AMP_test","2","primeRace","24","4","3","18","0","429","40","46"
"032217","16:27:31","465","AMP_test","2","primeNeutral","25","1","11","23","1","360","40","50"
"032217","16:27:31","465","AMP_test","2","primeRace","26","6","10","23","1","310","45","50"
"032217","16:27:31","465","AMP_test","2","primeNeutral","27","1","6","23","1","447","45","53"
"032217","16:27:31","465","AMP_test","2","primeNeutral","28","1","18","18","0","546","45","50"
"032217","16:27:31","465","AMP_test","2","primeNeutral","29","1","12","18","0","288","45","47"
"032217","16:27:31","465","AMP_test","2","primeRace","30","3","4","18","0","369","41","47"
"032217","16:27:31","465","AMP_test","2","primeNeutral","31","1","14","18","0","424","41","44"
"032217","16:27:31","465","AMP_test","2","primeRace","32","2","18","18","0","627","38","44"
"032217","16:27:31","465","AMP_test","2","primeNeutral","33","1","11","18","0","199","38","42"
"032217","16:27:31","465","AMP_test","2","primeRace","34","2","2","18","0","292","35","42"
"032217","16:27:31","465","AMP_test","2","primeRace","35","3","9","23","1","293","40","42"
"032217","16:27:31","465","AMP_test","2","primeRace","36","1","15","23","1","214","43","42"
"032217","16:27:31","465","AMP_test","2","primeNeutral","37","1","6","23","1","314","43","45"
"032217","16:27:31","465","AMP_test","2","primeRace","38","5","12","23","1","322","47","45"
"032217","16:27:31","465","AMP_test","2","primeRace","39","6","16","23","1","330","50","45"
"032217","16:27:31","465","AMP_test","2","primeRace","40","4","8","23","1","401","52","45"
"032217","16:27:31","465","AMP_test","2","primeNeutral","41","1","3","23","1","366","52","47"
"032217","16:27:31","465","AMP_test","2","primeNeutral","42","1","5","18","0","565","52","45"
"032217","16:27:31","465","AMP_test","2","primeRace","43","6","13","18","0","75","50","45"
"032217","16:27:31","465","AMP_test","2","primeRace","44","3","10","23","1","221","52","45"
"032217","16:27:31","465","AMP_test","2","primeNeutral","45","1","20","18","0","168","52","43"
"032217","16:27:31","465","AMP_test","2","primeNeutral","46","1","7","18","0","215","52","41"
"032217","16:27:31","465","AMP_test","2","primeRace","47","5","4","18","0","227","50","41"
"032217","16:27:31","465","AMP_test","2","primeNeutral","48","1","19","23","1","287","50","44"
"032217","16:27:31","465","AMP_test","2","primeNeutral","49","1","14","18","0","272","50","42"
"032217","16:27:31","465","AMP_test","2","primeNeutral","50","1","17","18","0","609","50","40"
