"participant","accuracy","rt","item","IAT_condition","block_order","task_order","gender","age","modern_racism_scale_total","amp_recognition_response","IAT_exclude_based_on_fast_trials","AMP_exclude_based_on_fast_trials_old","exclude"
481,1,716,"primeRace","Race IAT","congruent","ratings first","male",22,22,"Both white and black faces",FALSE,FALSE,FALSE
481,1,572,"primeRace","Race IAT","congruent","ratings first","male",22,22,"Both white and black faces",FALSE,FALSE,FALSE
481,0,667,"primeNeutral","Race IAT","congruent","ratings first","male",22,22,"Both white and black faces",FALSE,FALSE,FALSE
481,1,992,"primeRace","Race IAT","congruent","ratings first","male",22,22,"Both white and black faces",FALSE,FALSE,FALSE
481,0,591,"primeNeutral","Race IAT","congruent","ratings first","male",22,22,"Both white and black faces",FALSE,FALSE,FALSE
481,1,493,"primeRace","Race IAT","congruent","ratings first","male",22,22,"Both white and black faces",FALSE,FALSE,FALSE
481,0,581,"primeNeutral","Race IAT","congruent","ratings first","male",22,22,"Both white and black faces",FALSE,FALSE,FALSE
481,1,505,"primeNeutral","Race IAT","congruent","ratings first","male",22,22,"Both white and black faces",FALSE,FALSE,FALSE
481,1,642,"primeRace","Race IAT","congruent","ratings first","male",22,22,"Both white and black faces",FALSE,FALSE,FALSE
481,1,599,"primeRace","Race IAT","congruent","ratings first","male",22,22,"Both white and black faces",FALSE,FALSE,FALSE
481,0,773,"primeRace","Race IAT","congruent","ratings first","male",22,22,"Both white and black faces",FALSE,FALSE,FALSE
481,0,558,"primeRace","Race IAT","congruent","ratings first","male",22,22,"Both white and black faces",FALSE,FALSE,FALSE
481,1,459,"primeNeutral","Race IAT","congruent","ratings first","male",22,22,"Both white and black faces",FALSE,FALSE,FALSE
481,1,615,"primeRace","Race IAT","congruent","ratings first","male",22,22,"Both white and black faces",FALSE,FALSE,FALSE
481,1,566,"primeNeutral","Race IAT","congruent","ratings first","male",22,22,"Both white and black faces",FALSE,FALSE,FALSE
481,0,591,"primeNeutral","Race IAT","congruent","ratings first","male",22,22,"Both white and black faces",FALSE,FALSE,FALSE
481,0,634,"primeRace","Race IAT","congruent","ratings first","male",22,22,"Both white and black faces",FALSE,FALSE,FALSE
481,1,376,"primeNeutral","Race IAT","congruent","ratings first","male",22,22,"Both white and black faces",FALSE,FALSE,FALSE
481,1,445,"primeRace","Race IAT","congruent","ratings first","male",22,22,"Both white and black faces",FALSE,FALSE,FALSE
481,0,523,"primeRace","Race IAT","congruent","ratings first","male",22,22,"Both white and black faces",FALSE,FALSE,FALSE
481,0,738,"primeRace","Race IAT","congruent","ratings first","male",22,22,"Both white and black faces",FALSE,FALSE,FALSE
481,0,681,"primeRace","Race IAT","congruent","ratings first","male",22,22,"Both white and black faces",FALSE,FALSE,FALSE
481,1,400,"primeRace","Race IAT","congruent","ratings first","male",22,22,"Both white and black faces",FALSE,FALSE,FALSE
481,0,697,"primeNeutral","Race IAT","congruent","ratings first","male",22,22,"Both white and black faces",FALSE,FALSE,FALSE
481,1,389,"primeRace","Race IAT","congruent","ratings first","male",22,22,"Both white and black faces",FALSE,FALSE,FALSE
481,1,577,"primeRace","Race IAT","congruent","ratings first","male",22,22,"Both white and black faces",FALSE,FALSE,FALSE
481,1,501,"primeRace","Race IAT","congruent","ratings first","male",22,22,"Both white and black faces",FALSE,FALSE,FALSE
481,1,839,"primeNeutral","Race IAT","congruent","ratings first","male",22,22,"Both white and black faces",FALSE,FALSE,FALSE
481,1,766,"primeNeutral","Race IAT","congruent","ratings first","male",22,22,"Both white and black faces",FALSE,FALSE,FALSE
481,1,548,"primeRace","Race IAT","congruent","ratings first","male",22,22,"Both white and black faces",FALSE,FALSE,FALSE
481,0,676,"primeRace","Race IAT","congruent","ratings first","male",22,22,"Both white and black faces",FALSE,FALSE,FALSE
481,1,469,"primeNeutral","Race IAT","congruent","ratings first","male",22,22,"Both white and black faces",FALSE,FALSE,FALSE
481,1,510,"primeNeutral","Race IAT","congruent","ratings first","male",22,22,"Both white and black faces",FALSE,FALSE,FALSE
481,0,600,"primeNeutral","Race IAT","congruent","ratings first","male",22,22,"Both white and black faces",FALSE,FALSE,FALSE
481,1,412,"primeRace","Race IAT","congruent","ratings first","male",22,22,"Both white and black faces",FALSE,FALSE,FALSE
481,1,728,"primeNeutral","Race IAT","congruent","ratings first","male",22,22,"Both white and black faces",FALSE,FALSE,FALSE
481,1,542,"primeRace","Race IAT","congruent","ratings first","male",22,22,"Both white and black faces",FALSE,FALSE,FALSE
481,1,831,"primeNeutral","Race IAT","congruent","ratings first","male",22,22,"Both white and black faces",FALSE,FALSE,FALSE
481,1,535,"primeNeutral","Race IAT","congruent","ratings first","male",22,22,"Both white and black faces",FALSE,FALSE,FALSE
481,1,714,"primeRace","Race IAT","congruent","ratings first","male",22,22,"Both white and black faces",FALSE,FALSE,FALSE
481,0,534,"primeRace","Race IAT","congruent","ratings first","male",22,22,"Both white and black faces",FALSE,FALSE,FALSE
481,0,683,"primeNeutral","Race IAT","congruent","ratings first","male",22,22,"Both white and black faces",FALSE,FALSE,FALSE
481,0,638,"primeNeutral","Race IAT","congruent","ratings first","male",22,22,"Both white and black faces",FALSE,FALSE,FALSE
481,1,536,"primeRace","Race IAT","congruent","ratings first","male",22,22,"Both white and black faces",FALSE,FALSE,FALSE
481,1,478,"primeRace","Race IAT","congruent","ratings first","male",22,22,"Both white and black faces",FALSE,FALSE,FALSE
481,1,507,"primeNeutral","Race IAT","congruent","ratings first","male",22,22,"Both white and black faces",FALSE,FALSE,FALSE
481,1,544,"primeNeutral","Race IAT","congruent","ratings first","male",22,22,"Both white and black faces",FALSE,FALSE,FALSE
481,0,696,"primeNeutral","Race IAT","congruent","ratings first","male",22,22,"Both white and black faces",FALSE,FALSE,FALSE
481,1,680,"primeNeutral","Race IAT","congruent","ratings first","male",22,22,"Both white and black faces",FALSE,FALSE,FALSE
481,1,770,"primeRace","Race IAT","congruent","ratings first","male",22,22,"Both white and black faces",FALSE,FALSE,FALSE
481,1,520,"primeRace","Race IAT","congruent","ratings first","male",22,22,"Both white and black faces",FALSE,FALSE,FALSE
481,0,558,"primeNeutral","Race IAT","congruent","ratings first","male",22,22,"Both white and black faces",FALSE,FALSE,FALSE
481,1,535,"primeRace","Race IAT","congruent","ratings first","male",22,22,"Both white and black faces",FALSE,FALSE,FALSE
481,1,468,"primeRace","Race IAT","congruent","ratings first","male",22,22,"Both white and black faces",FALSE,FALSE,FALSE
481,0,597,"primeNeutral","Race IAT","congruent","ratings first","male",22,22,"Both white and black faces",FALSE,FALSE,FALSE
481,0,581,"primeRace","Race IAT","congruent","ratings first","male",22,22,"Both white and black faces",FALSE,FALSE,FALSE
481,0,510,"primeNeutral","Race IAT","congruent","ratings first","male",22,22,"Both white and black faces",FALSE,FALSE,FALSE
481,1,445,"primeRace","Race IAT","congruent","ratings first","male",22,22,"Both white and black faces",FALSE,FALSE,FALSE
481,0,548,"primeNeutral","Race IAT","congruent","ratings first","male",22,22,"Both white and black faces",FALSE,FALSE,FALSE
481,0,901,"primeRace","Race IAT","congruent","ratings first","male",22,22,"Both white and black faces",FALSE,FALSE,FALSE
481,1,558,"primeNeutral","Race IAT","congruent","ratings first","male",22,22,"Both white and black faces",FALSE,FALSE,FALSE
481,1,544,"primeNeutral","Race IAT","congruent","ratings first","male",22,22,"Both white and black faces",FALSE,FALSE,FALSE
481,0,472,"primeRace","Race IAT","congruent","ratings first","male",22,22,"Both white and black faces",FALSE,FALSE,FALSE
481,1,561,"primeRace","Race IAT","congruent","ratings first","male",22,22,"Both white and black faces",FALSE,FALSE,FALSE
481,1,1159,"primeRace","Race IAT","congruent","ratings first","male",22,22,"Both white and black faces",FALSE,FALSE,FALSE
481,1,419,"primeNeutral","Race IAT","congruent","ratings first","male",22,22,"Both white and black faces",FALSE,FALSE,FALSE
481,1,906,"primeNeutral","Race IAT","congruent","ratings first","male",22,22,"Both white and black faces",FALSE,FALSE,FALSE
481,1,386,"primeNeutral","Race IAT","congruent","ratings first","male",22,22,"Both white and black faces",FALSE,FALSE,FALSE
481,1,353,"primeNeutral","Race IAT","congruent","ratings first","male",22,22,"Both white and black faces",FALSE,FALSE,FALSE
481,1,665,"primeRace","Race IAT","congruent","ratings first","male",22,22,"Both white and black faces",FALSE,FALSE,FALSE
481,0,305,"primeNeutral","Race IAT","congruent","ratings first","male",22,22,"Both white and black faces",FALSE,FALSE,FALSE
481,0,627,"primeRace","Race IAT","congruent","ratings first","male",22,22,"Both white and black faces",FALSE,FALSE,FALSE
481,0,522,"primeNeutral","Race IAT","congruent","ratings first","male",22,22,"Both white and black faces",FALSE,FALSE,FALSE
481,0,481,"primeNeutral","Race IAT","congruent","ratings first","male",22,22,"Both white and black faces",FALSE,FALSE,FALSE
481,1,475,"primeRace","Race IAT","congruent","ratings first","male",22,22,"Both white and black faces",FALSE,FALSE,FALSE
481,1,434,"primeNeutral","Race IAT","congruent","ratings first","male",22,22,"Both white and black faces",FALSE,FALSE,FALSE
481,0,551,"primeNeutral","Race IAT","congruent","ratings first","male",22,22,"Both white and black faces",FALSE,FALSE,FALSE
481,1,487,"primeNeutral","Race IAT","congruent","ratings first","male",22,22,"Both white and black faces",FALSE,FALSE,FALSE
481,0,495,"primeNeutral","Race IAT","congruent","ratings first","male",22,22,"Both white and black faces",FALSE,FALSE,FALSE
481,0,544,"primeNeutral","Race IAT","congruent","ratings first","male",22,22,"Both white and black faces",FALSE,FALSE,FALSE
481,1,372,"primeNeutral","Race IAT","congruent","ratings first","male",22,22,"Both white and black faces",FALSE,FALSE,FALSE
481,1,776,"primeNeutral","Race IAT","congruent","ratings first","male",22,22,"Both white and black faces",FALSE,FALSE,FALSE
481,0,792,"primeRace","Race IAT","congruent","ratings first","male",22,22,"Both white and black faces",FALSE,FALSE,FALSE
481,1,499,"primeRace","Race IAT","congruent","ratings first","male",22,22,"Both white and black faces",FALSE,FALSE,FALSE
481,0,788,"primeNeutral","Race IAT","congruent","ratings first","male",22,22,"Both white and black faces",FALSE,FALSE,FALSE
481,1,535,"primeNeutral","Race IAT","congruent","ratings first","male",22,22,"Both white and black faces",FALSE,FALSE,FALSE
481,1,653,"primeRace","Race IAT","congruent","ratings first","male",22,22,"Both white and black faces",FALSE,FALSE,FALSE
481,1,499,"primeRace","Race IAT","congruent","ratings first","male",22,22,"Both white and black faces",FALSE,FALSE,FALSE
481,1,537,"primeRace","Race IAT","congruent","ratings first","male",22,22,"Both white and black faces",FALSE,FALSE,FALSE
481,0,910,"primeRace","Race IAT","congruent","ratings first","male",22,22,"Both white and black faces",FALSE,FALSE,FALSE
481,1,411,"primeNeutral","Race IAT","congruent","ratings first","male",22,22,"Both white and black faces",FALSE,FALSE,FALSE
481,1,492,"primeRace","Race IAT","congruent","ratings first","male",22,22,"Both white and black faces",FALSE,FALSE,FALSE
481,0,585,"primeNeutral","Race IAT","congruent","ratings first","male",22,22,"Both white and black faces",FALSE,FALSE,FALSE
481,0,638,"primeRace","Race IAT","congruent","ratings first","male",22,22,"Both white and black faces",FALSE,FALSE,FALSE
481,1,506,"primeNeutral","Race IAT","congruent","ratings first","male",22,22,"Both white and black faces",FALSE,FALSE,FALSE
481,1,667,"primeRace","Race IAT","congruent","ratings first","male",22,22,"Both white and black faces",FALSE,FALSE,FALSE
481,1,431,"primeRace","Race IAT","congruent","ratings first","male",22,22,"Both white and black faces",FALSE,FALSE,FALSE
481,1,476,"primeNeutral","Race IAT","congruent","ratings first","male",22,22,"Both white and black faces",FALSE,FALSE,FALSE
481,1,541,"primeRace","Race IAT","congruent","ratings first","male",22,22,"Both white and black faces",FALSE,FALSE,FALSE
481,0,643,"primeNeutral","Race IAT","congruent","ratings first","male",22,22,"Both white and black faces",FALSE,FALSE,FALSE
480,1,722,"primeRace","Flowers-Insects IAT","incongruent","SCIAT first","male",28,19,"Only black faces",FALSE,FALSE,FALSE
480,1,1131,"primeRace","Flowers-Insects IAT","incongruent","SCIAT first","male",28,19,"Only black faces",FALSE,FALSE,FALSE
480,0,937,"primeNeutral","Flowers-Insects IAT","incongruent","SCIAT first","male",28,19,"Only black faces",FALSE,FALSE,FALSE
480,0,670,"primeNeutral","Flowers-Insects IAT","incongruent","SCIAT first","male",28,19,"Only black faces",FALSE,FALSE,FALSE
480,1,707,"primeRace","Flowers-Insects IAT","incongruent","SCIAT first","male",28,19,"Only black faces",FALSE,FALSE,FALSE
480,1,658,"primeRace","Flowers-Insects IAT","incongruent","SCIAT first","male",28,19,"Only black faces",FALSE,FALSE,FALSE
480,0,745,"primeRace","Flowers-Insects IAT","incongruent","SCIAT first","male",28,19,"Only black faces",FALSE,FALSE,FALSE
480,1,770,"primeNeutral","Flowers-Insects IAT","incongruent","SCIAT first","male",28,19,"Only black faces",FALSE,FALSE,FALSE
480,0,798,"primeNeutral","Flowers-Insects IAT","incongruent","SCIAT first","male",28,19,"Only black faces",FALSE,FALSE,FALSE
480,0,629,"primeNeutral","Flowers-Insects IAT","incongruent","SCIAT first","male",28,19,"Only black faces",FALSE,FALSE,FALSE
480,1,773,"primeRace","Flowers-Insects IAT","incongruent","SCIAT first","male",28,19,"Only black faces",FALSE,FALSE,FALSE
480,0,764,"primeNeutral","Flowers-Insects IAT","incongruent","SCIAT first","male",28,19,"Only black faces",FALSE,FALSE,FALSE
480,1,661,"primeNeutral","Flowers-Insects IAT","incongruent","SCIAT first","male",28,19,"Only black faces",FALSE,FALSE,FALSE
480,1,847,"primeRace","Flowers-Insects IAT","incongruent","SCIAT first","male",28,19,"Only black faces",FALSE,FALSE,FALSE
480,0,645,"primeNeutral","Flowers-Insects IAT","incongruent","SCIAT first","male",28,19,"Only black faces",FALSE,FALSE,FALSE
480,1,766,"primeNeutral","Flowers-Insects IAT","incongruent","SCIAT first","male",28,19,"Only black faces",FALSE,FALSE,FALSE
480,0,760,"primeRace","Flowers-Insects IAT","incongruent","SCIAT first","male",28,19,"Only black faces",FALSE,FALSE,FALSE
480,0,819,"primeNeutral","Flowers-Insects IAT","incongruent","SCIAT first","male",28,19,"Only black faces",FALSE,FALSE,FALSE
480,1,560,"primeNeutral","Flowers-Insects IAT","incongruent","SCIAT first","male",28,19,"Only black faces",FALSE,FALSE,FALSE
480,1,919,"primeRace","Flowers-Insects IAT","incongruent","SCIAT first","male",28,19,"Only black faces",FALSE,FALSE,FALSE
480,0,553,"primeRace","Flowers-Insects IAT","incongruent","SCIAT first","male",28,19,"Only black faces",FALSE,FALSE,FALSE
480,1,588,"primeNeutral","Flowers-Insects IAT","incongruent","SCIAT first","male",28,19,"Only black faces",FALSE,FALSE,FALSE
480,1,835,"primeNeutral","Flowers-Insects IAT","incongruent","SCIAT first","male",28,19,"Only black faces",FALSE,FALSE,FALSE
480,0,832,"primeRace","Flowers-Insects IAT","incongruent","SCIAT first","male",28,19,"Only black faces",FALSE,FALSE,FALSE
480,1,676,"primeRace","Flowers-Insects IAT","incongruent","SCIAT first","male",28,19,"Only black faces",FALSE,FALSE,FALSE
480,1,788,"primeRace","Flowers-Insects IAT","incongruent","SCIAT first","male",28,19,"Only black faces",FALSE,FALSE,FALSE
480,1,695,"primeNeutral","Flowers-Insects IAT","incongruent","SCIAT first","male",28,19,"Only black faces",FALSE,FALSE,FALSE
480,1,939,"primeRace","Flowers-Insects IAT","incongruent","SCIAT first","male",28,19,"Only black faces",FALSE,FALSE,FALSE
480,0,678,"primeNeutral","Flowers-Insects IAT","incongruent","SCIAT first","male",28,19,"Only black faces",FALSE,FALSE,FALSE
480,1,725,"primeRace","Flowers-Insects IAT","incongruent","SCIAT first","male",28,19,"Only black faces",FALSE,FALSE,FALSE
480,1,777,"primeRace","Flowers-Insects IAT","incongruent","SCIAT first","male",28,19,"Only black faces",FALSE,FALSE,FALSE
480,0,829,"primeRace","Flowers-Insects IAT","incongruent","SCIAT first","male",28,19,"Only black faces",FALSE,FALSE,FALSE
480,0,739,"primeNeutral","Flowers-Insects IAT","incongruent","SCIAT first","male",28,19,"Only black faces",FALSE,FALSE,FALSE
480,1,699,"primeRace","Flowers-Insects IAT","incongruent","SCIAT first","male",28,19,"Only black faces",FALSE,FALSE,FALSE
480,1,706,"primeRace","Flowers-Insects IAT","incongruent","SCIAT first","male",28,19,"Only black faces",FALSE,FALSE,FALSE
480,0,574,"primeRace","Flowers-Insects IAT","incongruent","SCIAT first","male",28,19,"Only black faces",FALSE,FALSE,FALSE
480,0,481,"primeNeutral","Flowers-Insects IAT","incongruent","SCIAT first","male",28,19,"Only black faces",FALSE,FALSE,FALSE
480,1,1395,"primeNeutral","Flowers-Insects IAT","incongruent","SCIAT first","male",28,19,"Only black faces",FALSE,FALSE,FALSE
480,0,1313,"primeNeutral","Flowers-Insects IAT","incongruent","SCIAT first","male",28,19,"Only black faces",FALSE,FALSE,FALSE
480,1,694,"primeNeutral","Flowers-Insects IAT","incongruent","SCIAT first","male",28,19,"Only black faces",FALSE,FALSE,FALSE
480,0,524,"primeRace","Flowers-Insects IAT","incongruent","SCIAT first","male",28,19,"Only black faces",FALSE,FALSE,FALSE
480,0,789,"primeNeutral","Flowers-Insects IAT","incongruent","SCIAT first","male",28,19,"Only black faces",FALSE,FALSE,FALSE
480,1,1028,"primeRace","Flowers-Insects IAT","incongruent","SCIAT first","male",28,19,"Only black faces",FALSE,FALSE,FALSE
480,1,1034,"primeNeutral","Flowers-Insects IAT","incongruent","SCIAT first","male",28,19,"Only black faces",FALSE,FALSE,FALSE
480,1,1708,"primeRace","Flowers-Insects IAT","incongruent","SCIAT first","male",28,19,"Only black faces",FALSE,FALSE,FALSE
480,0,729,"primeNeutral","Flowers-Insects IAT","incongruent","SCIAT first","male",28,19,"Only black faces",FALSE,FALSE,FALSE
480,0,1146,"primeNeutral","Flowers-Insects IAT","incongruent","SCIAT first","male",28,19,"Only black faces",FALSE,FALSE,FALSE
480,1,443,"primeNeutral","Flowers-Insects IAT","incongruent","SCIAT first","male",28,19,"Only black faces",FALSE,FALSE,FALSE
480,1,954,"primeRace","Flowers-Insects IAT","incongruent","SCIAT first","male",28,19,"Only black faces",FALSE,FALSE,FALSE
480,0,799,"primeNeutral","Flowers-Insects IAT","incongruent","SCIAT first","male",28,19,"Only black faces",FALSE,FALSE,FALSE
480,1,920,"primeNeutral","Flowers-Insects IAT","incongruent","SCIAT first","male",28,19,"Only black faces",FALSE,FALSE,FALSE
480,0,714,"primeRace","Flowers-Insects IAT","incongruent","SCIAT first","male",28,19,"Only black faces",FALSE,FALSE,FALSE
480,0,1016,"primeRace","Flowers-Insects IAT","incongruent","SCIAT first","male",28,19,"Only black faces",FALSE,FALSE,FALSE
480,1,1038,"primeRace","Flowers-Insects IAT","incongruent","SCIAT first","male",28,19,"Only black faces",FALSE,FALSE,FALSE
480,1,1042,"primeRace","Flowers-Insects IAT","incongruent","SCIAT first","male",28,19,"Only black faces",FALSE,FALSE,FALSE
480,0,954,"primeRace","Flowers-Insects IAT","incongruent","SCIAT first","male",28,19,"Only black faces",FALSE,FALSE,FALSE
480,0,633,"primeRace","Flowers-Insects IAT","incongruent","SCIAT first","male",28,19,"Only black faces",FALSE,FALSE,FALSE
480,1,661,"primeRace","Flowers-Insects IAT","incongruent","SCIAT first","male",28,19,"Only black faces",FALSE,FALSE,FALSE
480,0,960,"primeNeutral","Flowers-Insects IAT","incongruent","SCIAT first","male",28,19,"Only black faces",FALSE,FALSE,FALSE
480,1,1181,"primeNeutral","Flowers-Insects IAT","incongruent","SCIAT first","male",28,19,"Only black faces",FALSE,FALSE,FALSE
480,1,881,"primeNeutral","Flowers-Insects IAT","incongruent","SCIAT first","male",28,19,"Only black faces",FALSE,FALSE,FALSE
480,0,929,"primeRace","Flowers-Insects IAT","incongruent","SCIAT first","male",28,19,"Only black faces",FALSE,FALSE,FALSE
480,0,897,"primeNeutral","Flowers-Insects IAT","incongruent","SCIAT first","male",28,19,"Only black faces",FALSE,FALSE,FALSE
480,1,674,"primeRace","Flowers-Insects IAT","incongruent","SCIAT first","male",28,19,"Only black faces",FALSE,FALSE,FALSE
480,1,778,"primeRace","Flowers-Insects IAT","incongruent","SCIAT first","male",28,19,"Only black faces",FALSE,FALSE,FALSE
480,0,694,"primeNeutral","Flowers-Insects IAT","incongruent","SCIAT first","male",28,19,"Only black faces",FALSE,FALSE,FALSE
480,1,809,"primeRace","Flowers-Insects IAT","incongruent","SCIAT first","male",28,19,"Only black faces",FALSE,FALSE,FALSE
480,0,846,"primeNeutral","Flowers-Insects IAT","incongruent","SCIAT first","male",28,19,"Only black faces",FALSE,FALSE,FALSE
480,1,824,"primeRace","Flowers-Insects IAT","incongruent","SCIAT first","male",28,19,"Only black faces",FALSE,FALSE,FALSE
480,0,1051,"primeRace","Flowers-Insects IAT","incongruent","SCIAT first","male",28,19,"Only black faces",FALSE,FALSE,FALSE
480,1,753,"primeNeutral","Flowers-Insects IAT","incongruent","SCIAT first","male",28,19,"Only black faces",FALSE,FALSE,FALSE
480,0,699,"primeNeutral","Flowers-Insects IAT","incongruent","SCIAT first","male",28,19,"Only black faces",FALSE,FALSE,FALSE
480,0,724,"primeRace","Flowers-Insects IAT","incongruent","SCIAT first","male",28,19,"Only black faces",FALSE,FALSE,FALSE
480,1,528,"primeNeutral","Flowers-Insects IAT","incongruent","SCIAT first","male",28,19,"Only black faces",FALSE,FALSE,FALSE
480,1,659,"primeNeutral","Flowers-Insects IAT","incongruent","SCIAT first","male",28,19,"Only black faces",FALSE,FALSE,FALSE
480,0,703,"primeNeutral","Flowers-Insects IAT","incongruent","SCIAT first","male",28,19,"Only black faces",FALSE,FALSE,FALSE
480,0,831,"primeRace","Flowers-Insects IAT","incongruent","SCIAT first","male",28,19,"Only black faces",FALSE,FALSE,FALSE
480,1,870,"primeNeutral","Flowers-Insects IAT","incongruent","SCIAT first","male",28,19,"Only black faces",FALSE,FALSE,FALSE
480,0,687,"primeRace","Flowers-Insects IAT","incongruent","SCIAT first","male",28,19,"Only black faces",FALSE,FALSE,FALSE
480,1,746,"primeRace","Flowers-Insects IAT","incongruent","SCIAT first","male",28,19,"Only black faces",FALSE,FALSE,FALSE
480,0,703,"primeNeutral","Flowers-Insects IAT","incongruent","SCIAT first","male",28,19,"Only black faces",FALSE,FALSE,FALSE
480,1,600,"primeNeutral","Flowers-Insects IAT","incongruent","SCIAT first","male",28,19,"Only black faces",FALSE,FALSE,FALSE
480,1,791,"primeNeutral","Flowers-Insects IAT","incongruent","SCIAT first","male",28,19,"Only black faces",FALSE,FALSE,FALSE
480,0,751,"primeRace","Flowers-Insects IAT","incongruent","SCIAT first","male",28,19,"Only black faces",FALSE,FALSE,FALSE
480,0,854,"primeNeutral","Flowers-Insects IAT","incongruent","SCIAT first","male",28,19,"Only black faces",FALSE,FALSE,FALSE
480,1,685,"primeNeutral","Flowers-Insects IAT","incongruent","SCIAT first","male",28,19,"Only black faces",FALSE,FALSE,FALSE
480,1,752,"primeRace","Flowers-Insects IAT","incongruent","SCIAT first","male",28,19,"Only black faces",FALSE,FALSE,FALSE
480,0,601,"primeNeutral","Flowers-Insects IAT","incongruent","SCIAT first","male",28,19,"Only black faces",FALSE,FALSE,FALSE
480,0,720,"primeRace","Flowers-Insects IAT","incongruent","SCIAT first","male",28,19,"Only black faces",FALSE,FALSE,FALSE
480,0,880,"primeNeutral","Flowers-Insects IAT","incongruent","SCIAT first","male",28,19,"Only black faces",FALSE,FALSE,FALSE
480,1,547,"primeRace","Flowers-Insects IAT","incongruent","SCIAT first","male",28,19,"Only black faces",FALSE,FALSE,FALSE
480,0,870,"primeRace","Flowers-Insects IAT","incongruent","SCIAT first","male",28,19,"Only black faces",FALSE,FALSE,FALSE
480,1,863,"primeNeutral","Flowers-Insects IAT","incongruent","SCIAT first","male",28,19,"Only black faces",FALSE,FALSE,FALSE
480,0,419,"primeRace","Flowers-Insects IAT","incongruent","SCIAT first","male",28,19,"Only black faces",FALSE,FALSE,FALSE
480,0,298,"primeNeutral","Flowers-Insects IAT","incongruent","SCIAT first","male",28,19,"Only black faces",FALSE,FALSE,FALSE
480,0,442,"primeRace","Flowers-Insects IAT","incongruent","SCIAT first","male",28,19,"Only black faces",FALSE,FALSE,FALSE
480,0,284,"primeNeutral","Flowers-Insects IAT","incongruent","SCIAT first","male",28,19,"Only black faces",FALSE,FALSE,FALSE
480,1,582,"primeNeutral","Flowers-Insects IAT","incongruent","SCIAT first","male",28,19,"Only black faces",FALSE,FALSE,FALSE
480,0,462,"primeRace","Flowers-Insects IAT","incongruent","SCIAT first","male",28,19,"Only black faces",FALSE,FALSE,FALSE
480,1,457,"primeRace","Flowers-Insects IAT","incongruent","SCIAT first","male",28,19,"Only black faces",FALSE,FALSE,FALSE
478,0,1489,"primeRace","Flowers-Insects IAT","incongruent","ratings first","male",52,18,"Only black faces",FALSE,FALSE,FALSE
478,1,961,"primeRace","Flowers-Insects IAT","incongruent","ratings first","male",52,18,"Only black faces",FALSE,FALSE,FALSE
478,1,995,"primeRace","Flowers-Insects IAT","incongruent","ratings first","male",52,18,"Only black faces",FALSE,FALSE,FALSE
478,0,815,"primeRace","Flowers-Insects IAT","incongruent","ratings first","male",52,18,"Only black faces",FALSE,FALSE,FALSE
478,0,1368,"primeNeutral","Flowers-Insects IAT","incongruent","ratings first","male",52,18,"Only black faces",FALSE,FALSE,FALSE
478,1,1026,"primeRace","Flowers-Insects IAT","incongruent","ratings first","male",52,18,"Only black faces",FALSE,FALSE,FALSE
478,0,832,"primeNeutral","Flowers-Insects IAT","incongruent","ratings first","male",52,18,"Only black faces",FALSE,FALSE,FALSE
478,1,783,"primeRace","Flowers-Insects IAT","incongruent","ratings first","male",52,18,"Only black faces",FALSE,FALSE,FALSE
478,0,1255,"primeRace","Flowers-Insects IAT","incongruent","ratings first","male",52,18,"Only black faces",FALSE,FALSE,FALSE
478,0,792,"primeRace","Flowers-Insects IAT","incongruent","ratings first","male",52,18,"Only black faces",FALSE,FALSE,FALSE
478,1,626,"primeRace","Flowers-Insects IAT","incongruent","ratings first","male",52,18,"Only black faces",FALSE,FALSE,FALSE
478,1,877,"primeRace","Flowers-Insects IAT","incongruent","ratings first","male",52,18,"Only black faces",FALSE,FALSE,FALSE
478,1,836,"primeRace","Flowers-Insects IAT","incongruent","ratings first","male",52,18,"Only black faces",FALSE,FALSE,FALSE
478,0,691,"primeRace","Flowers-Insects IAT","incongruent","ratings first","male",52,18,"Only black faces",FALSE,FALSE,FALSE
478,1,1033,"primeRace","Flowers-Insects IAT","incongruent","ratings first","male",52,18,"Only black faces",FALSE,FALSE,FALSE
478,0,951,"primeRace","Flowers-Insects IAT","incongruent","ratings first","male",52,18,"Only black faces",FALSE,FALSE,FALSE
478,0,856,"primeRace","Flowers-Insects IAT","incongruent","ratings first","male",52,18,"Only black faces",FALSE,FALSE,FALSE
478,1,633,"primeNeutral","Flowers-Insects IAT","incongruent","ratings first","male",52,18,"Only black faces",FALSE,FALSE,FALSE
478,1,843,"primeNeutral","Flowers-Insects IAT","incongruent","ratings first","male",52,18,"Only black faces",FALSE,FALSE,FALSE
478,1,789,"primeNeutral","Flowers-Insects IAT","incongruent","ratings first","male",52,18,"Only black faces",FALSE,FALSE,FALSE
478,0,599,"primeRace","Flowers-Insects IAT","incongruent","ratings first","male",52,18,"Only black faces",FALSE,FALSE,FALSE
478,1,792,"primeNeutral","Flowers-Insects IAT","incongruent","ratings first","male",52,18,"Only black faces",FALSE,FALSE,FALSE
478,1,968,"primeNeutral","Flowers-Insects IAT","incongruent","ratings first","male",52,18,"Only black faces",FALSE,FALSE,FALSE
478,0,566,"primeNeutral","Flowers-Insects IAT","incongruent","ratings first","male",52,18,"Only black faces",FALSE,FALSE,FALSE
478,1,813,"primeNeutral","Flowers-Insects IAT","incongruent","ratings first","male",52,18,"Only black faces",FALSE,FALSE,FALSE
478,0,860,"primeNeutral","Flowers-Insects IAT","incongruent","ratings first","male",52,18,"Only black faces",FALSE,FALSE,FALSE
478,0,617,"primeNeutral","Flowers-Insects IAT","incongruent","ratings first","male",52,18,"Only black faces",FALSE,FALSE,FALSE
478,1,678,"primeNeutral","Flowers-Insects IAT","incongruent","ratings first","male",52,18,"Only black faces",FALSE,FALSE,FALSE
478,0,890,"primeRace","Flowers-Insects IAT","incongruent","ratings first","male",52,18,"Only black faces",FALSE,FALSE,FALSE
478,1,851,"primeNeutral","Flowers-Insects IAT","incongruent","ratings first","male",52,18,"Only black faces",FALSE,FALSE,FALSE
478,0,1528,"primeNeutral","Flowers-Insects IAT","incongruent","ratings first","male",52,18,"Only black faces",FALSE,FALSE,FALSE
478,1,1128,"primeRace","Flowers-Insects IAT","incongruent","ratings first","male",52,18,"Only black faces",FALSE,FALSE,FALSE
478,0,677,"primeNeutral","Flowers-Insects IAT","incongruent","ratings first","male",52,18,"Only black faces",FALSE,FALSE,FALSE
478,1,684,"primeRace","Flowers-Insects IAT","incongruent","ratings first","male",52,18,"Only black faces",FALSE,FALSE,FALSE
478,1,892,"primeNeutral","Flowers-Insects IAT","incongruent","ratings first","male",52,18,"Only black faces",FALSE,FALSE,FALSE
478,0,579,"primeNeutral","Flowers-Insects IAT","incongruent","ratings first","male",52,18,"Only black faces",FALSE,FALSE,FALSE
478,1,680,"primeNeutral","Flowers-Insects IAT","incongruent","ratings first","male",52,18,"Only black faces",FALSE,FALSE,FALSE
478,1,1309,"primeRace","Flowers-Insects IAT","incongruent","ratings first","male",52,18,"Only black faces",FALSE,FALSE,FALSE
478,0,910,"primeRace","Flowers-Insects IAT","incongruent","ratings first","male",52,18,"Only black faces",FALSE,FALSE,FALSE
478,1,1538,"primeNeutral","Flowers-Insects IAT","incongruent","ratings first","male",52,18,"Only black faces",FALSE,FALSE,FALSE
478,1,870,"primeNeutral","Flowers-Insects IAT","incongruent","ratings first","male",52,18,"Only black faces",FALSE,FALSE,FALSE
478,1,1118,"primeRace","Flowers-Insects IAT","incongruent","ratings first","male",52,18,"Only black faces",FALSE,FALSE,FALSE
478,0,530,"primeRace","Flowers-Insects IAT","incongruent","ratings first","male",52,18,"Only black faces",FALSE,FALSE,FALSE
478,0,571,"primeNeutral","Flowers-Insects IAT","incongruent","ratings first","male",52,18,"Only black faces",FALSE,FALSE,FALSE
478,1,1486,"primeRace","Flowers-Insects IAT","incongruent","ratings first","male",52,18,"Only black faces",FALSE,FALSE,FALSE
478,0,893,"primeNeutral","Flowers-Insects IAT","incongruent","ratings first","male",52,18,"Only black faces",FALSE,FALSE,FALSE
478,1,607,"primeRace","Flowers-Insects IAT","incongruent","ratings first","male",52,18,"Only black faces",FALSE,FALSE,FALSE
478,1,953,"primeNeutral","Flowers-Insects IAT","incongruent","ratings first","male",52,18,"Only black faces",FALSE,FALSE,FALSE
478,0,705,"primeRace","Flowers-Insects IAT","incongruent","ratings first","male",52,18,"Only black faces",FALSE,FALSE,FALSE
478,0,1445,"primeNeutral","Flowers-Insects IAT","incongruent","ratings first","male",52,18,"Only black faces",FALSE,FALSE,FALSE
478,0,839,"primeRace","Flowers-Insects IAT","incongruent","ratings first","male",52,18,"Only black faces",FALSE,FALSE,FALSE
478,0,751,"primeRace","Flowers-Insects IAT","incongruent","ratings first","male",52,18,"Only black faces",FALSE,FALSE,FALSE
478,1,375,"primeNeutral","Flowers-Insects IAT","incongruent","ratings first","male",52,18,"Only black faces",FALSE,FALSE,FALSE
478,1,728,"primeRace","Flowers-Insects IAT","incongruent","ratings first","male",52,18,"Only black faces",FALSE,FALSE,FALSE
478,1,1084,"primeNeutral","Flowers-Insects IAT","incongruent","ratings first","male",52,18,"Only black faces",FALSE,FALSE,FALSE
478,1,840,"primeNeutral","Flowers-Insects IAT","incongruent","ratings first","male",52,18,"Only black faces",FALSE,FALSE,FALSE
478,0,993,"primeRace","Flowers-Insects IAT","incongruent","ratings first","male",52,18,"Only black faces",FALSE,FALSE,FALSE
478,0,890,"primeNeutral","Flowers-Insects IAT","incongruent","ratings first","male",52,18,"Only black faces",FALSE,FALSE,FALSE
478,1,475,"primeNeutral","Flowers-Insects IAT","incongruent","ratings first","male",52,18,"Only black faces",FALSE,FALSE,FALSE
478,0,614,"primeNeutral","Flowers-Insects IAT","incongruent","ratings first","male",52,18,"Only black faces",FALSE,FALSE,FALSE
478,1,1214,"primeRace","Flowers-Insects IAT","incongruent","ratings first","male",52,18,"Only black faces",FALSE,FALSE,FALSE
478,0,806,"primeRace","Flowers-Insects IAT","incongruent","ratings first","male",52,18,"Only black faces",FALSE,FALSE,FALSE
478,1,777,"primeNeutral","Flowers-Insects IAT","incongruent","ratings first","male",52,18,"Only black faces",FALSE,FALSE,FALSE
478,1,1139,"primeRace","Flowers-Insects IAT","incongruent","ratings first","male",52,18,"Only black faces",FALSE,FALSE,FALSE
478,0,826,"primeRace","Flowers-Insects IAT","incongruent","ratings first","male",52,18,"Only black faces",FALSE,FALSE,FALSE
478,0,1182,"primeNeutral","Flowers-Insects IAT","incongruent","ratings first","male",52,18,"Only black faces",FALSE,FALSE,FALSE
478,1,675,"primeRace","Flowers-Insects IAT","incongruent","ratings first","male",52,18,"Only black faces",FALSE,FALSE,FALSE
478,1,746,"primeRace","Flowers-Insects IAT","incongruent","ratings first","male",52,18,"Only black faces",FALSE,FALSE,FALSE
478,1,733,"primeNeutral","Flowers-Insects IAT","incongruent","ratings first","male",52,18,"Only black faces",FALSE,FALSE,FALSE
478,1,808,"primeNeutral","Flowers-Insects IAT","incongruent","ratings first","male",52,18,"Only black faces",FALSE,FALSE,FALSE
478,0,567,"primeNeutral","Flowers-Insects IAT","incongruent","ratings first","male",52,18,"Only black faces",FALSE,FALSE,FALSE
478,1,815,"primeRace","Flowers-Insects IAT","incongruent","ratings first","male",52,18,"Only black faces",FALSE,FALSE,FALSE
478,0,521,"primeRace","Flowers-Insects IAT","incongruent","ratings first","male",52,18,"Only black faces",FALSE,FALSE,FALSE
478,0,669,"primeNeutral","Flowers-Insects IAT","incongruent","ratings first","male",52,18,"Only black faces",FALSE,FALSE,FALSE
478,1,542,"primeNeutral","Flowers-Insects IAT","incongruent","ratings first","male",52,18,"Only black faces",FALSE,FALSE,FALSE
478,0,1100,"primeNeutral","Flowers-Insects IAT","incongruent","ratings first","male",52,18,"Only black faces",FALSE,FALSE,FALSE
478,1,644,"primeRace","Flowers-Insects IAT","incongruent","ratings first","male",52,18,"Only black faces",FALSE,FALSE,FALSE
478,0,768,"primeRace","Flowers-Insects IAT","incongruent","ratings first","male",52,18,"Only black faces",FALSE,FALSE,FALSE
478,1,680,"primeRace","Flowers-Insects IAT","incongruent","ratings first","male",52,18,"Only black faces",FALSE,FALSE,FALSE
478,1,780,"primeNeutral","Flowers-Insects IAT","incongruent","ratings first","male",52,18,"Only black faces",FALSE,FALSE,FALSE
478,0,708,"primeRace","Flowers-Insects IAT","incongruent","ratings first","male",52,18,"Only black faces",FALSE,FALSE,FALSE
478,0,831,"primeNeutral","Flowers-Insects IAT","incongruent","ratings first","male",52,18,"Only black faces",FALSE,FALSE,FALSE
478,0,1479,"primeNeutral","Flowers-Insects IAT","incongruent","ratings first","male",52,18,"Only black faces",FALSE,FALSE,FALSE
478,1,749,"primeNeutral","Flowers-Insects IAT","incongruent","ratings first","male",52,18,"Only black faces",FALSE,FALSE,FALSE
478,1,1128,"primeRace","Flowers-Insects IAT","incongruent","ratings first","male",52,18,"Only black faces",FALSE,FALSE,FALSE
478,0,931,"primeRace","Flowers-Insects IAT","incongruent","ratings first","male",52,18,"Only black faces",FALSE,FALSE,FALSE
478,1,617,"primeNeutral","Flowers-Insects IAT","incongruent","ratings first","male",52,18,"Only black faces",FALSE,FALSE,FALSE
478,0,553,"primeNeutral","Flowers-Insects IAT","incongruent","ratings first","male",52,18,"Only black faces",FALSE,FALSE,FALSE
478,1,991,"primeNeutral","Flowers-Insects IAT","incongruent","ratings first","male",52,18,"Only black faces",FALSE,FALSE,FALSE
478,0,633,"primeNeutral","Flowers-Insects IAT","incongruent","ratings first","male",52,18,"Only black faces",FALSE,FALSE,FALSE
478,1,703,"primeNeutral","Flowers-Insects IAT","incongruent","ratings first","male",52,18,"Only black faces",FALSE,FALSE,FALSE
478,1,627,"primeNeutral","Flowers-Insects IAT","incongruent","ratings first","male",52,18,"Only black faces",FALSE,FALSE,FALSE
478,0,612,"primeRace","Flowers-Insects IAT","incongruent","ratings first","male",52,18,"Only black faces",FALSE,FALSE,FALSE
478,0,570,"primeNeutral","Flowers-Insects IAT","incongruent","ratings first","male",52,18,"Only black faces",FALSE,FALSE,FALSE
478,0,703,"primeRace","Flowers-Insects IAT","incongruent","ratings first","male",52,18,"Only black faces",FALSE,FALSE,FALSE
478,0,1044,"primeRace","Flowers-Insects IAT","incongruent","ratings first","male",52,18,"Only black faces",FALSE,FALSE,FALSE
478,1,941,"primeRace","Flowers-Insects IAT","incongruent","ratings first","male",52,18,"Only black faces",FALSE,FALSE,FALSE
478,0,822,"primeRace","Flowers-Insects IAT","incongruent","ratings first","male",52,18,"Only black faces",FALSE,FALSE,FALSE
478,0,767,"primeNeutral","Flowers-Insects IAT","incongruent","ratings first","male",52,18,"Only black faces",FALSE,FALSE,FALSE
478,1,456,"primeRace","Flowers-Insects IAT","incongruent","ratings first","male",52,18,"Only black faces",FALSE,FALSE,FALSE
475,1,911,"primeRace","Race IAT","congruent","SCIAT first","male",31,23,"Both white and black faces",FALSE,TRUE,FALSE
475,0,959,"primeRace","Race IAT","congruent","SCIAT first","male",31,23,"Both white and black faces",FALSE,TRUE,FALSE
475,1,592,"primeRace","Race IAT","congruent","SCIAT first","male",31,23,"Both white and black faces",FALSE,TRUE,FALSE
475,1,505,"primeRace","Race IAT","congruent","SCIAT first","male",31,23,"Both white and black faces",FALSE,TRUE,FALSE
475,1,724,"primeRace","Race IAT","congruent","SCIAT first","male",31,23,"Both white and black faces",FALSE,TRUE,FALSE
475,1,771,"primeNeutral","Race IAT","congruent","SCIAT first","male",31,23,"Both white and black faces",FALSE,TRUE,FALSE
475,0,626,"primeRace","Race IAT","congruent","SCIAT first","male",31,23,"Both white and black faces",FALSE,TRUE,FALSE
475,1,560,"primeRace","Race IAT","congruent","SCIAT first","male",31,23,"Both white and black faces",FALSE,TRUE,FALSE
475,1,411,"primeRace","Race IAT","congruent","SCIAT first","male",31,23,"Both white and black faces",FALSE,TRUE,FALSE
475,1,423,"primeNeutral","Race IAT","congruent","SCIAT first","male",31,23,"Both white and black faces",FALSE,TRUE,FALSE
475,1,438,"primeRace","Race IAT","congruent","SCIAT first","male",31,23,"Both white and black faces",FALSE,TRUE,FALSE
475,0,501,"primeNeutral","Race IAT","congruent","SCIAT first","male",31,23,"Both white and black faces",FALSE,TRUE,FALSE
475,1,352,"primeRace","Race IAT","congruent","SCIAT first","male",31,23,"Both white and black faces",FALSE,TRUE,FALSE
475,1,349,"primeRace","Race IAT","congruent","SCIAT first","male",31,23,"Both white and black faces",FALSE,TRUE,FALSE
475,1,360,"primeRace","Race IAT","congruent","SCIAT first","male",31,23,"Both white and black faces",FALSE,TRUE,FALSE
475,1,316,"primeRace","Race IAT","congruent","SCIAT first","male",31,23,"Both white and black faces",FALSE,TRUE,FALSE
475,1,253,"primeNeutral","Race IAT","congruent","SCIAT first","male",31,23,"Both white and black faces",FALSE,TRUE,FALSE
475,1,135,"primeRace","Race IAT","congruent","SCIAT first","male",31,23,"Both white and black faces",FALSE,TRUE,FALSE
475,1,2183,"primeNeutral","Race IAT","congruent","SCIAT first","male",31,23,"Both white and black faces",FALSE,TRUE,FALSE
475,1,435,"primeNeutral","Race IAT","congruent","SCIAT first","male",31,23,"Both white and black faces",FALSE,TRUE,FALSE
475,0,443,"primeNeutral","Race IAT","congruent","SCIAT first","male",31,23,"Both white and black faces",FALSE,TRUE,FALSE
475,1,495,"primeNeutral","Race IAT","congruent","SCIAT first","male",31,23,"Both white and black faces",FALSE,TRUE,FALSE
475,1,313,"primeRace","Race IAT","congruent","SCIAT first","male",31,23,"Both white and black faces",FALSE,TRUE,FALSE
475,1,227,"primeNeutral","Race IAT","congruent","SCIAT first","male",31,23,"Both white and black faces",FALSE,TRUE,FALSE
475,1,262,"primeRace","Race IAT","congruent","SCIAT first","male",31,23,"Both white and black faces",FALSE,TRUE,FALSE
475,1,308,"primeNeutral","Race IAT","congruent","SCIAT first","male",31,23,"Both white and black faces",FALSE,TRUE,FALSE
475,1,357,"primeRace","Race IAT","congruent","SCIAT first","male",31,23,"Both white and black faces",FALSE,TRUE,FALSE
475,1,264,"primeNeutral","Race IAT","congruent","SCIAT first","male",31,23,"Both white and black faces",FALSE,TRUE,FALSE
475,1,306,"primeNeutral","Race IAT","congruent","SCIAT first","male",31,23,"Both white and black faces",FALSE,TRUE,FALSE
475,1,303,"primeNeutral","Race IAT","congruent","SCIAT first","male",31,23,"Both white and black faces",FALSE,TRUE,FALSE
475,0,291,"primeNeutral","Race IAT","congruent","SCIAT first","male",31,23,"Both white and black faces",FALSE,TRUE,FALSE
475,0,549,"primeNeutral","Race IAT","congruent","SCIAT first","male",31,23,"Both white and black faces",FALSE,TRUE,FALSE
475,1,274,"primeNeutral","Race IAT","congruent","SCIAT first","male",31,23,"Both white and black faces",FALSE,TRUE,FALSE
475,1,235,"primeNeutral","Race IAT","congruent","SCIAT first","male",31,23,"Both white and black faces",FALSE,TRUE,FALSE
475,1,272,"primeNeutral","Race IAT","congruent","SCIAT first","male",31,23,"Both white and black faces",FALSE,TRUE,FALSE
475,1,241,"primeNeutral","Race IAT","congruent","SCIAT first","male",31,23,"Both white and black faces",FALSE,TRUE,FALSE
475,1,306,"primeNeutral","Race IAT","congruent","SCIAT first","male",31,23,"Both white and black faces",FALSE,TRUE,FALSE
475,1,283,"primeRace","Race IAT","congruent","SCIAT first","male",31,23,"Both white and black faces",FALSE,TRUE,FALSE
475,1,322,"primeNeutral","Race IAT","congruent","SCIAT first","male",31,23,"Both white and black faces",FALSE,TRUE,FALSE
475,0,344,"primeRace","Race IAT","congruent","SCIAT first","male",31,23,"Both white and black faces",FALSE,TRUE,FALSE
475,1,225,"primeNeutral","Race IAT","congruent","SCIAT first","male",31,23,"Both white and black faces",FALSE,TRUE,FALSE
475,1,269,"primeRace","Race IAT","congruent","SCIAT first","male",31,23,"Both white and black faces",FALSE,TRUE,FALSE
475,1,251,"primeRace","Race IAT","congruent","SCIAT first","male",31,23,"Both white and black faces",FALSE,TRUE,FALSE
475,1,259,"primeRace","Race IAT","congruent","SCIAT first","male",31,23,"Both white and black faces",FALSE,TRUE,FALSE
475,1,290,"primeNeutral","Race IAT","congruent","SCIAT first","male",31,23,"Both white and black faces",FALSE,TRUE,FALSE
475,1,304,"primeRace","Race IAT","congruent","SCIAT first","male",31,23,"Both white and black faces",FALSE,TRUE,FALSE
475,1,204,"primeNeutral","Race IAT","congruent","SCIAT first","male",31,23,"Both white and black faces",FALSE,TRUE,FALSE
475,1,260,"primeRace","Race IAT","congruent","SCIAT first","male",31,23,"Both white and black faces",FALSE,TRUE,FALSE
475,1,260,"primeNeutral","Race IAT","congruent","SCIAT first","male",31,23,"Both white and black faces",FALSE,TRUE,FALSE
475,1,250,"primeNeutral","Race IAT","congruent","SCIAT first","male",31,23,"Both white and black faces",FALSE,TRUE,FALSE
475,1,272,"primeRace","Race IAT","congruent","SCIAT first","male",31,23,"Both white and black faces",FALSE,TRUE,FALSE
475,1,260,"primeNeutral","Race IAT","congruent","SCIAT first","male",31,23,"Both white and black faces",FALSE,TRUE,FALSE
475,1,263,"primeRace","Race IAT","congruent","SCIAT first","male",31,23,"Both white and black faces",FALSE,TRUE,FALSE
475,1,88,"primeNeutral","Race IAT","congruent","SCIAT first","male",31,23,"Both white and black faces",FALSE,TRUE,FALSE
475,1,170,"primeRace","Race IAT","congruent","SCIAT first","male",31,23,"Both white and black faces",FALSE,TRUE,FALSE
475,1,156,"primeRace","Race IAT","congruent","SCIAT first","male",31,23,"Both white and black faces",FALSE,TRUE,FALSE
475,1,105,"primeRace","Race IAT","congruent","SCIAT first","male",31,23,"Both white and black faces",FALSE,TRUE,FALSE
475,1,345,"primeNeutral","Race IAT","congruent","SCIAT first","male",31,23,"Both white and black faces",FALSE,TRUE,FALSE
475,0,368,"primeRace","Race IAT","congruent","SCIAT first","male",31,23,"Both white and black faces",FALSE,TRUE,FALSE
475,1,989,"primeRace","Race IAT","congruent","SCIAT first","male",31,23,"Both white and black faces",FALSE,TRUE,FALSE
475,1,399,"primeNeutral","Race IAT","congruent","SCIAT first","male",31,23,"Both white and black faces",FALSE,TRUE,FALSE
475,1,413,"primeNeutral","Race IAT","congruent","SCIAT first","male",31,23,"Both white and black faces",FALSE,TRUE,FALSE
475,1,329,"primeRace","Race IAT","congruent","SCIAT first","male",31,23,"Both white and black faces",FALSE,TRUE,FALSE
475,0,518,"primeNeutral","Race IAT","congruent","SCIAT first","male",31,23,"Both white and black faces",FALSE,TRUE,FALSE
475,1,302,"primeNeutral","Race IAT","congruent","SCIAT first","male",31,23,"Both white and black faces",FALSE,TRUE,FALSE
475,0,451,"primeNeutral","Race IAT","congruent","SCIAT first","male",31,23,"Both white and black faces",FALSE,TRUE,FALSE
475,1,244,"primeNeutral","Race IAT","congruent","SCIAT first","male",31,23,"Both white and black faces",FALSE,TRUE,FALSE
475,1,194,"primeNeutral","Race IAT","congruent","SCIAT first","male",31,23,"Both white and black faces",FALSE,TRUE,FALSE
475,1,231,"primeNeutral","Race IAT","congruent","SCIAT first","male",31,23,"Both white and black faces",FALSE,TRUE,FALSE
475,1,266,"primeRace","Race IAT","congruent","SCIAT first","male",31,23,"Both white and black faces",FALSE,TRUE,FALSE
475,1,180,"primeRace","Race IAT","congruent","SCIAT first","male",31,23,"Both white and black faces",FALSE,TRUE,FALSE
475,1,178,"primeNeutral","Race IAT","congruent","SCIAT first","male",31,23,"Both white and black faces",FALSE,TRUE,FALSE
475,1,40,"primeNeutral","Race IAT","congruent","SCIAT first","male",31,23,"Both white and black faces",FALSE,TRUE,FALSE
475,1,329,"primeNeutral","Race IAT","congruent","SCIAT first","male",31,23,"Both white and black faces",FALSE,TRUE,FALSE
475,0,357,"primeNeutral","Race IAT","congruent","SCIAT first","male",31,23,"Both white and black faces",FALSE,TRUE,FALSE
475,1,192,"primeRace","Race IAT","congruent","SCIAT first","male",31,23,"Both white and black faces",FALSE,TRUE,FALSE
475,1,293,"primeRace","Race IAT","congruent","SCIAT first","male",31,23,"Both white and black faces",FALSE,TRUE,FALSE
475,1,363,"primeRace","Race IAT","congruent","SCIAT first","male",31,23,"Both white and black faces",FALSE,TRUE,FALSE
475,1,294,"primeRace","Race IAT","congruent","SCIAT first","male",31,23,"Both white and black faces",FALSE,TRUE,FALSE
475,1,268,"primeNeutral","Race IAT","congruent","SCIAT first","male",31,23,"Both white and black faces",FALSE,TRUE,FALSE
475,1,257,"primeRace","Race IAT","congruent","SCIAT first","male",31,23,"Both white and black faces",FALSE,TRUE,FALSE
475,1,271,"primeRace","Race IAT","congruent","SCIAT first","male",31,23,"Both white and black faces",FALSE,TRUE,FALSE
475,1,273,"primeRace","Race IAT","congruent","SCIAT first","male",31,23,"Both white and black faces",FALSE,TRUE,FALSE
475,1,320,"primeRace","Race IAT","congruent","SCIAT first","male",31,23,"Both white and black faces",FALSE,TRUE,FALSE
475,1,370,"primeNeutral","Race IAT","congruent","SCIAT first","male",31,23,"Both white and black faces",FALSE,TRUE,FALSE
475,1,283,"primeNeutral","Race IAT","congruent","SCIAT first","male",31,23,"Both white and black faces",FALSE,TRUE,FALSE
475,1,350,"primeRace","Race IAT","congruent","SCIAT first","male",31,23,"Both white and black faces",FALSE,TRUE,FALSE
475,1,240,"primeNeutral","Race IAT","congruent","SCIAT first","male",31,23,"Both white and black faces",FALSE,TRUE,FALSE
475,1,324,"primeRace","Race IAT","congruent","SCIAT first","male",31,23,"Both white and black faces",FALSE,TRUE,FALSE
475,1,314,"primeNeutral","Race IAT","congruent","SCIAT first","male",31,23,"Both white and black faces",FALSE,TRUE,FALSE
475,1,298,"primeRace","Race IAT","congruent","SCIAT first","male",31,23,"Both white and black faces",FALSE,TRUE,FALSE
475,1,310,"primeNeutral","Race IAT","congruent","SCIAT first","male",31,23,"Both white and black faces",FALSE,TRUE,FALSE
475,1,222,"primeRace","Race IAT","congruent","SCIAT first","male",31,23,"Both white and black faces",FALSE,TRUE,FALSE
475,1,232,"primeRace","Race IAT","congruent","SCIAT first","male",31,23,"Both white and black faces",FALSE,TRUE,FALSE
475,1,284,"primeRace","Race IAT","congruent","SCIAT first","male",31,23,"Both white and black faces",FALSE,TRUE,FALSE
475,1,243,"primeNeutral","Race IAT","congruent","SCIAT first","male",31,23,"Both white and black faces",FALSE,TRUE,FALSE
475,1,359,"primeNeutral","Race IAT","congruent","SCIAT first","male",31,23,"Both white and black faces",FALSE,TRUE,FALSE
475,1,233,"primeNeutral","Race IAT","congruent","SCIAT first","male",31,23,"Both white and black faces",FALSE,TRUE,FALSE
475,1,223,"primeRace","Race IAT","congruent","SCIAT first","male",31,23,"Both white and black faces",FALSE,TRUE,FALSE
475,1,221,"primeRace","Race IAT","congruent","SCIAT first","male",31,23,"Both white and black faces",FALSE,TRUE,FALSE
459,1,5085,"primeRace","Race IAT","congruent","SCIAT first","female",27,22,"Only black faces",FALSE,TRUE,FALSE
459,1,913,"primeNeutral","Race IAT","congruent","SCIAT first","female",27,22,"Only black faces",FALSE,TRUE,FALSE
459,1,1279,"primeRace","Race IAT","congruent","SCIAT first","female",27,22,"Only black faces",FALSE,TRUE,FALSE
459,1,547,"primeNeutral","Race IAT","congruent","SCIAT first","female",27,22,"Only black faces",FALSE,TRUE,FALSE
459,1,1629,"primeRace","Race IAT","congruent","SCIAT first","female",27,22,"Only black faces",FALSE,TRUE,FALSE
459,1,399,"primeRace","Race IAT","congruent","SCIAT first","female",27,22,"Only black faces",FALSE,TRUE,FALSE
459,0,1013,"primeNeutral","Race IAT","congruent","SCIAT first","female",27,22,"Only black faces",FALSE,TRUE,FALSE
459,1,374,"primeNeutral","Race IAT","congruent","SCIAT first","female",27,22,"Only black faces",FALSE,TRUE,FALSE
459,0,520,"primeNeutral","Race IAT","congruent","SCIAT first","female",27,22,"Only black faces",FALSE,TRUE,FALSE
459,1,369,"primeRace","Race IAT","congruent","SCIAT first","female",27,22,"Only black faces",FALSE,TRUE,FALSE
459,0,823,"primeNeutral","Race IAT","congruent","SCIAT first","female",27,22,"Only black faces",FALSE,TRUE,FALSE
459,1,321,"primeNeutral","Race IAT","congruent","SCIAT first","female",27,22,"Only black faces",FALSE,TRUE,FALSE
459,1,345,"primeNeutral","Race IAT","congruent","SCIAT first","female",27,22,"Only black faces",FALSE,TRUE,FALSE
459,1,462,"primeRace","Race IAT","congruent","SCIAT first","female",27,22,"Only black faces",FALSE,TRUE,FALSE
459,1,276,"primeRace","Race IAT","congruent","SCIAT first","female",27,22,"Only black faces",FALSE,TRUE,FALSE
459,0,695,"primeNeutral","Race IAT","congruent","SCIAT first","female",27,22,"Only black faces",FALSE,TRUE,FALSE
459,1,351,"primeRace","Race IAT","congruent","SCIAT first","female",27,22,"Only black faces",FALSE,TRUE,FALSE
459,0,358,"primeNeutral","Race IAT","congruent","SCIAT first","female",27,22,"Only black faces",FALSE,TRUE,FALSE
459,1,54,"primeNeutral","Race IAT","congruent","SCIAT first","female",27,22,"Only black faces",FALSE,TRUE,FALSE
459,1,323,"primeRace","Race IAT","congruent","SCIAT first","female",27,22,"Only black faces",FALSE,TRUE,FALSE
459,1,284,"primeNeutral","Race IAT","congruent","SCIAT first","female",27,22,"Only black faces",FALSE,TRUE,FALSE
459,0,165,"primeRace","Race IAT","congruent","SCIAT first","female",27,22,"Only black faces",FALSE,TRUE,FALSE
459,1,313,"primeNeutral","Race IAT","congruent","SCIAT first","female",27,22,"Only black faces",FALSE,TRUE,FALSE
459,1,253,"primeRace","Race IAT","congruent","SCIAT first","female",27,22,"Only black faces",FALSE,TRUE,FALSE
459,0,272,"primeRace","Race IAT","congruent","SCIAT first","female",27,22,"Only black faces",FALSE,TRUE,FALSE
459,1,378,"primeNeutral","Race IAT","congruent","SCIAT first","female",27,22,"Only black faces",FALSE,TRUE,FALSE
459,1,369,"primeRace","Race IAT","congruent","SCIAT first","female",27,22,"Only black faces",FALSE,TRUE,FALSE
459,1,363,"primeRace","Race IAT","congruent","SCIAT first","female",27,22,"Only black faces",FALSE,TRUE,FALSE
459,1,317,"primeNeutral","Race IAT","congruent","SCIAT first","female",27,22,"Only black faces",FALSE,TRUE,FALSE
459,1,757,"primeRace","Race IAT","congruent","SCIAT first","female",27,22,"Only black faces",FALSE,TRUE,FALSE
459,1,621,"primeRace","Race IAT","congruent","SCIAT first","female",27,22,"Only black faces",FALSE,TRUE,FALSE
459,1,505,"primeRace","Race IAT","congruent","SCIAT first","female",27,22,"Only black faces",FALSE,TRUE,FALSE
459,1,547,"primeNeutral","Race IAT","congruent","SCIAT first","female",27,22,"Only black faces",FALSE,TRUE,FALSE
459,0,316,"primeRace","Race IAT","congruent","SCIAT first","female",27,22,"Only black faces",FALSE,TRUE,FALSE
459,1,437,"primeNeutral","Race IAT","congruent","SCIAT first","female",27,22,"Only black faces",FALSE,TRUE,FALSE
459,1,348,"primeRace","Race IAT","congruent","SCIAT first","female",27,22,"Only black faces",FALSE,TRUE,FALSE
459,1,1222,"primeRace","Race IAT","congruent","SCIAT first","female",27,22,"Only black faces",FALSE,TRUE,FALSE
459,1,160,"primeRace","Race IAT","congruent","SCIAT first","female",27,22,"Only black faces",FALSE,TRUE,FALSE
459,1,355,"primeNeutral","Race IAT","congruent","SCIAT first","female",27,22,"Only black faces",FALSE,TRUE,FALSE
459,0,350,"primeNeutral","Race IAT","congruent","SCIAT first","female",27,22,"Only black faces",FALSE,TRUE,FALSE
459,1,271,"primeRace","Race IAT","congruent","SCIAT first","female",27,22,"Only black faces",FALSE,TRUE,FALSE
459,1,576,"primeRace","Race IAT","congruent","SCIAT first","female",27,22,"Only black faces",FALSE,TRUE,FALSE
459,1,270,"primeNeutral","Race IAT","congruent","SCIAT first","female",27,22,"Only black faces",FALSE,TRUE,FALSE
459,1,98,"primeNeutral","Race IAT","congruent","SCIAT first","female",27,22,"Only black faces",FALSE,TRUE,FALSE
459,1,899,"primeNeutral","Race IAT","congruent","SCIAT first","female",27,22,"Only black faces",FALSE,TRUE,FALSE
459,1,73,"primeRace","Race IAT","congruent","SCIAT first","female",27,22,"Only black faces",FALSE,TRUE,FALSE
459,1,583,"primeNeutral","Race IAT","congruent","SCIAT first","female",27,22,"Only black faces",FALSE,TRUE,FALSE
459,1,260,"primeRace","Race IAT","congruent","SCIAT first","female",27,22,"Only black faces",FALSE,TRUE,FALSE
459,1,422,"primeNeutral","Race IAT","congruent","SCIAT first","female",27,22,"Only black faces",FALSE,TRUE,FALSE
459,1,190,"primeRace","Race IAT","congruent","SCIAT first","female",27,22,"Only black faces",FALSE,TRUE,FALSE
459,1,372,"primeNeutral","Race IAT","congruent","SCIAT first","female",27,22,"Only black faces",FALSE,TRUE,FALSE
459,1,505,"primeRace","Race IAT","congruent","SCIAT first","female",27,22,"Only black faces",FALSE,TRUE,FALSE
459,1,484,"primeRace","Race IAT","congruent","SCIAT first","female",27,22,"Only black faces",FALSE,TRUE,FALSE
459,1,470,"primeNeutral","Race IAT","congruent","SCIAT first","female",27,22,"Only black faces",FALSE,TRUE,FALSE
459,1,415,"primeNeutral","Race IAT","congruent","SCIAT first","female",27,22,"Only black faces",FALSE,TRUE,FALSE
459,1,426,"primeNeutral","Race IAT","congruent","SCIAT first","female",27,22,"Only black faces",FALSE,TRUE,FALSE
459,1,1,"primeNeutral","Race IAT","congruent","SCIAT first","female",27,22,"Only black faces",FALSE,TRUE,FALSE
459,1,707,"primeRace","Race IAT","congruent","SCIAT first","female",27,22,"Only black faces",FALSE,TRUE,FALSE
459,1,473,"primeNeutral","Race IAT","congruent","SCIAT first","female",27,22,"Only black faces",FALSE,TRUE,FALSE
459,1,356,"primeNeutral","Race IAT","congruent","SCIAT first","female",27,22,"Only black faces",FALSE,TRUE,FALSE
459,1,292,"primeNeutral","Race IAT","congruent","SCIAT first","female",27,22,"Only black faces",FALSE,TRUE,FALSE
459,1,530,"primeRace","Race IAT","congruent","SCIAT first","female",27,22,"Only black faces",FALSE,TRUE,FALSE
459,1,2109,"primeNeutral","Race IAT","congruent","SCIAT first","female",27,22,"Only black faces",FALSE,TRUE,FALSE
459,1,316,"primeRace","Race IAT","congruent","SCIAT first","female",27,22,"Only black faces",FALSE,TRUE,FALSE
459,1,238,"primeNeutral","Race IAT","congruent","SCIAT first","female",27,22,"Only black faces",FALSE,TRUE,FALSE
459,1,185,"primeRace","Race IAT","congruent","SCIAT first","female",27,22,"Only black faces",FALSE,TRUE,FALSE
459,1,330,"primeNeutral","Race IAT","congruent","SCIAT first","female",27,22,"Only black faces",FALSE,TRUE,FALSE
459,1,472,"primeRace","Race IAT","congruent","SCIAT first","female",27,22,"Only black faces",FALSE,TRUE,FALSE
459,1,148,"primeRace","Race IAT","congruent","SCIAT first","female",27,22,"Only black faces",FALSE,TRUE,FALSE
459,1,376,"primeRace","Race IAT","congruent","SCIAT first","female",27,22,"Only black faces",FALSE,TRUE,FALSE
459,1,392,"primeRace","Race IAT","congruent","SCIAT first","female",27,22,"Only black faces",FALSE,TRUE,FALSE
459,1,400,"primeNeutral","Race IAT","congruent","SCIAT first","female",27,22,"Only black faces",FALSE,TRUE,FALSE
459,1,602,"primeNeutral","Race IAT","congruent","SCIAT first","female",27,22,"Only black faces",FALSE,TRUE,FALSE
459,1,1934,"primeRace","Race IAT","congruent","SCIAT first","female",27,22,"Only black faces",FALSE,TRUE,FALSE
459,1,307,"primeRace","Race IAT","congruent","SCIAT first","female",27,22,"Only black faces",FALSE,TRUE,FALSE
459,1,2014,"primeRace","Race IAT","congruent","SCIAT first","female",27,22,"Only black faces",FALSE,TRUE,FALSE
459,1,258,"primeNeutral","Race IAT","congruent","SCIAT first","female",27,22,"Only black faces",FALSE,TRUE,FALSE
459,1,45,"primeNeutral","Race IAT","congruent","SCIAT first","female",27,22,"Only black faces",FALSE,TRUE,FALSE
459,1,3,"primeRace","Race IAT","congruent","SCIAT first","female",27,22,"Only black faces",FALSE,TRUE,FALSE
459,1,15,"primeRace","Race IAT","congruent","SCIAT first","female",27,22,"Only black faces",FALSE,TRUE,FALSE
459,1,195,"primeNeutral","Race IAT","congruent","SCIAT first","female",27,22,"Only black faces",FALSE,TRUE,FALSE
459,1,1658,"primeNeutral","Race IAT","congruent","SCIAT first","female",27,22,"Only black faces",FALSE,TRUE,FALSE
459,1,1224,"primeRace","Race IAT","congruent","SCIAT first","female",27,22,"Only black faces",FALSE,TRUE,FALSE
459,1,347,"primeNeutral","Race IAT","congruent","SCIAT first","female",27,22,"Only black faces",FALSE,TRUE,FALSE
459,1,629,"primeNeutral","Race IAT","congruent","SCIAT first","female",27,22,"Only black faces",FALSE,TRUE,FALSE
459,1,243,"primeRace","Race IAT","congruent","SCIAT first","female",27,22,"Only black faces",FALSE,TRUE,FALSE
459,1,1201,"primeNeutral","Race IAT","congruent","SCIAT first","female",27,22,"Only black faces",FALSE,TRUE,FALSE
459,1,299,"primeRace","Race IAT","congruent","SCIAT first","female",27,22,"Only black faces",FALSE,TRUE,FALSE
459,1,230,"primeNeutral","Race IAT","congruent","SCIAT first","female",27,22,"Only black faces",FALSE,TRUE,FALSE
459,1,228,"primeRace","Race IAT","congruent","SCIAT first","female",27,22,"Only black faces",FALSE,TRUE,FALSE
459,1,213,"primeRace","Race IAT","congruent","SCIAT first","female",27,22,"Only black faces",FALSE,TRUE,FALSE
459,1,252,"primeNeutral","Race IAT","congruent","SCIAT first","female",27,22,"Only black faces",FALSE,TRUE,FALSE
459,1,448,"primeRace","Race IAT","congruent","SCIAT first","female",27,22,"Only black faces",FALSE,TRUE,FALSE
459,1,300,"primeNeutral","Race IAT","congruent","SCIAT first","female",27,22,"Only black faces",FALSE,TRUE,FALSE
459,1,371,"primeRace","Race IAT","congruent","SCIAT first","female",27,22,"Only black faces",FALSE,TRUE,FALSE
459,1,391,"primeNeutral","Race IAT","congruent","SCIAT first","female",27,22,"Only black faces",FALSE,TRUE,FALSE
459,1,171,"primeRace","Race IAT","congruent","SCIAT first","female",27,22,"Only black faces",FALSE,TRUE,FALSE
459,1,367,"primeNeutral","Race IAT","congruent","SCIAT first","female",27,22,"Only black faces",FALSE,TRUE,FALSE
459,1,1355,"primeRace","Race IAT","congruent","SCIAT first","female",27,22,"Only black faces",FALSE,TRUE,FALSE
459,1,5558,"primeNeutral","Race IAT","congruent","SCIAT first","female",27,22,"Only black faces",FALSE,TRUE,FALSE
468,1,1071,"primeNeutral","Race IAT","incongruent","SCIAT first","male",22,19,"I don't know",FALSE,FALSE,FALSE
468,0,522,"primeRace","Race IAT","incongruent","SCIAT first","male",22,19,"I don't know",FALSE,FALSE,FALSE
468,1,538,"primeRace","Race IAT","incongruent","SCIAT first","male",22,19,"I don't know",FALSE,FALSE,FALSE
468,0,642,"primeNeutral","Race IAT","incongruent","SCIAT first","male",22,19,"I don't know",FALSE,FALSE,FALSE
468,1,1038,"primeRace","Race IAT","incongruent","SCIAT first","male",22,19,"I don't know",FALSE,FALSE,FALSE
468,0,962,"primeNeutral","Race IAT","incongruent","SCIAT first","male",22,19,"I don't know",FALSE,FALSE,FALSE
468,0,953,"primeNeutral","Race IAT","incongruent","SCIAT first","male",22,19,"I don't know",FALSE,FALSE,FALSE
468,1,1024,"primeRace","Race IAT","incongruent","SCIAT first","male",22,19,"I don't know",FALSE,FALSE,FALSE
468,0,917,"primeNeutral","Race IAT","incongruent","SCIAT first","male",22,19,"I don't know",FALSE,FALSE,FALSE
468,1,1270,"primeRace","Race IAT","incongruent","SCIAT first","male",22,19,"I don't know",FALSE,FALSE,FALSE
468,0,1288,"primeNeutral","Race IAT","incongruent","SCIAT first","male",22,19,"I don't know",FALSE,FALSE,FALSE
468,1,778,"primeNeutral","Race IAT","incongruent","SCIAT first","male",22,19,"I don't know",FALSE,FALSE,FALSE
468,1,1121,"primeRace","Race IAT","incongruent","SCIAT first","male",22,19,"I don't know",FALSE,FALSE,FALSE
468,0,625,"primeNeutral","Race IAT","incongruent","SCIAT first","male",22,19,"I don't know",FALSE,FALSE,FALSE
468,1,662,"primeRace","Race IAT","incongruent","SCIAT first","male",22,19,"I don't know",FALSE,FALSE,FALSE
468,1,553,"primeNeutral","Race IAT","incongruent","SCIAT first","male",22,19,"I don't know",FALSE,FALSE,FALSE
468,0,744,"primeNeutral","Race IAT","incongruent","SCIAT first","male",22,19,"I don't know",FALSE,FALSE,FALSE
468,0,944,"primeRace","Race IAT","incongruent","SCIAT first","male",22,19,"I don't know",FALSE,FALSE,FALSE
468,0,720,"primeRace","Race IAT","incongruent","SCIAT first","male",22,19,"I don't know",FALSE,FALSE,FALSE
468,1,577,"primeNeutral","Race IAT","incongruent","SCIAT first","male",22,19,"I don't know",FALSE,FALSE,FALSE
468,1,479,"primeNeutral","Race IAT","incongruent","SCIAT first","male",22,19,"I don't know",FALSE,FALSE,FALSE
468,0,586,"primeNeutral","Race IAT","incongruent","SCIAT first","male",22,19,"I don't know",FALSE,FALSE,FALSE
468,0,824,"primeNeutral","Race IAT","incongruent","SCIAT first","male",22,19,"I don't know",FALSE,FALSE,FALSE
468,1,581,"primeRace","Race IAT","incongruent","SCIAT first","male",22,19,"I don't know",FALSE,FALSE,FALSE
468,1,795,"primeNeutral","Race IAT","incongruent","SCIAT first","male",22,19,"I don't know",FALSE,FALSE,FALSE
468,1,505,"primeNeutral","Race IAT","incongruent","SCIAT first","male",22,19,"I don't know",FALSE,FALSE,FALSE
468,0,402,"primeNeutral","Race IAT","incongruent","SCIAT first","male",22,19,"I don't know",FALSE,FALSE,FALSE
468,0,648,"primeRace","Race IAT","incongruent","SCIAT first","male",22,19,"I don't know",FALSE,FALSE,FALSE
468,1,508,"primeNeutral","Race IAT","incongruent","SCIAT first","male",22,19,"I don't know",FALSE,FALSE,FALSE
468,0,589,"primeNeutral","Race IAT","incongruent","SCIAT first","male",22,19,"I don't know",FALSE,FALSE,FALSE
468,0,619,"primeNeutral","Race IAT","incongruent","SCIAT first","male",22,19,"I don't know",FALSE,FALSE,FALSE
468,0,679,"primeRace","Race IAT","incongruent","SCIAT first","male",22,19,"I don't know",FALSE,FALSE,FALSE
468,0,602,"primeRace","Race IAT","incongruent","SCIAT first","male",22,19,"I don't know",FALSE,FALSE,FALSE
468,1,679,"primeRace","Race IAT","incongruent","SCIAT first","male",22,19,"I don't know",FALSE,FALSE,FALSE
468,0,626,"primeNeutral","Race IAT","incongruent","SCIAT first","male",22,19,"I don't know",FALSE,FALSE,FALSE
468,1,662,"primeNeutral","Race IAT","incongruent","SCIAT first","male",22,19,"I don't know",FALSE,FALSE,FALSE
468,1,506,"primeNeutral","Race IAT","incongruent","SCIAT first","male",22,19,"I don't know",FALSE,FALSE,FALSE
468,1,515,"primeRace","Race IAT","incongruent","SCIAT first","male",22,19,"I don't know",FALSE,FALSE,FALSE
468,1,628,"primeRace","Race IAT","incongruent","SCIAT first","male",22,19,"I don't know",FALSE,FALSE,FALSE
468,0,601,"primeNeutral","Race IAT","incongruent","SCIAT first","male",22,19,"I don't know",FALSE,FALSE,FALSE
468,0,590,"primeRace","Race IAT","incongruent","SCIAT first","male",22,19,"I don't know",FALSE,FALSE,FALSE
468,0,620,"primeRace","Race IAT","incongruent","SCIAT first","male",22,19,"I don't know",FALSE,FALSE,FALSE
468,1,625,"primeNeutral","Race IAT","incongruent","SCIAT first","male",22,19,"I don't know",FALSE,FALSE,FALSE
468,0,765,"primeRace","Race IAT","incongruent","SCIAT first","male",22,19,"I don't know",FALSE,FALSE,FALSE
468,0,645,"primeNeutral","Race IAT","incongruent","SCIAT first","male",22,19,"I don't know",FALSE,FALSE,FALSE
468,1,472,"primeNeutral","Race IAT","incongruent","SCIAT first","male",22,19,"I don't know",FALSE,FALSE,FALSE
468,1,539,"primeRace","Race IAT","incongruent","SCIAT first","male",22,19,"I don't know",FALSE,FALSE,FALSE
468,0,507,"primeRace","Race IAT","incongruent","SCIAT first","male",22,19,"I don't know",FALSE,FALSE,FALSE
468,1,404,"primeNeutral","Race IAT","incongruent","SCIAT first","male",22,19,"I don't know",FALSE,FALSE,FALSE
468,1,466,"primeRace","Race IAT","incongruent","SCIAT first","male",22,19,"I don't know",FALSE,FALSE,FALSE
468,1,413,"primeNeutral","Race IAT","incongruent","SCIAT first","male",22,19,"I don't know",FALSE,FALSE,FALSE
468,1,402,"primeNeutral","Race IAT","incongruent","SCIAT first","male",22,19,"I don't know",FALSE,FALSE,FALSE
468,1,407,"primeRace","Race IAT","incongruent","SCIAT first","male",22,19,"I don't know",FALSE,FALSE,FALSE
468,0,541,"primeNeutral","Race IAT","incongruent","SCIAT first","male",22,19,"I don't know",FALSE,FALSE,FALSE
468,0,485,"primeNeutral","Race IAT","incongruent","SCIAT first","male",22,19,"I don't know",FALSE,FALSE,FALSE
468,1,527,"primeRace","Race IAT","incongruent","SCIAT first","male",22,19,"I don't know",FALSE,FALSE,FALSE
468,0,391,"primeNeutral","Race IAT","incongruent","SCIAT first","male",22,19,"I don't know",FALSE,FALSE,FALSE
468,1,373,"primeRace","Race IAT","incongruent","SCIAT first","male",22,19,"I don't know",FALSE,FALSE,FALSE
468,1,260,"primeRace","Race IAT","incongruent","SCIAT first","male",22,19,"I don't know",FALSE,FALSE,FALSE
468,0,271,"primeRace","Race IAT","incongruent","SCIAT first","male",22,19,"I don't know",FALSE,FALSE,FALSE
468,0,474,"primeNeutral","Race IAT","incongruent","SCIAT first","male",22,19,"I don't know",FALSE,FALSE,FALSE
468,0,564,"primeRace","Race IAT","incongruent","SCIAT first","male",22,19,"I don't know",FALSE,FALSE,FALSE
468,1,427,"primeNeutral","Race IAT","incongruent","SCIAT first","male",22,19,"I don't know",FALSE,FALSE,FALSE
468,1,488,"primeNeutral","Race IAT","incongruent","SCIAT first","male",22,19,"I don't know",FALSE,FALSE,FALSE
468,1,442,"primeRace","Race IAT","incongruent","SCIAT first","male",22,19,"I don't know",FALSE,FALSE,FALSE
468,0,502,"primeRace","Race IAT","incongruent","SCIAT first","male",22,19,"I don't know",FALSE,FALSE,FALSE
468,1,343,"primeNeutral","Race IAT","incongruent","SCIAT first","male",22,19,"I don't know",FALSE,FALSE,FALSE
468,0,343,"primeNeutral","Race IAT","incongruent","SCIAT first","male",22,19,"I don't know",FALSE,FALSE,FALSE
468,1,399,"primeRace","Race IAT","incongruent","SCIAT first","male",22,19,"I don't know",FALSE,FALSE,FALSE
468,1,661,"primeRace","Race IAT","incongruent","SCIAT first","male",22,19,"I don't know",FALSE,FALSE,FALSE
468,0,448,"primeRace","Race IAT","incongruent","SCIAT first","male",22,19,"I don't know",FALSE,FALSE,FALSE
468,1,452,"primeRace","Race IAT","incongruent","SCIAT first","male",22,19,"I don't know",FALSE,FALSE,FALSE
468,1,488,"primeRace","Race IAT","incongruent","SCIAT first","male",22,19,"I don't know",FALSE,FALSE,FALSE
468,0,449,"primeRace","Race IAT","incongruent","SCIAT first","male",22,19,"I don't know",FALSE,FALSE,FALSE
468,0,549,"primeRace","Race IAT","incongruent","SCIAT first","male",22,19,"I don't know",FALSE,FALSE,FALSE
468,1,605,"primeRace","Race IAT","incongruent","SCIAT first","male",22,19,"I don't know",FALSE,FALSE,FALSE
468,0,906,"primeNeutral","Race IAT","incongruent","SCIAT first","male",22,19,"I don't know",FALSE,FALSE,FALSE
468,1,563,"primeNeutral","Race IAT","incongruent","SCIAT first","male",22,19,"I don't know",FALSE,FALSE,FALSE
468,0,787,"primeRace","Race IAT","incongruent","SCIAT first","male",22,19,"I don't know",FALSE,FALSE,FALSE
468,1,632,"primeNeutral","Race IAT","incongruent","SCIAT first","male",22,19,"I don't know",FALSE,FALSE,FALSE
468,1,452,"primeNeutral","Race IAT","incongruent","SCIAT first","male",22,19,"I don't know",FALSE,FALSE,FALSE
468,1,464,"primeNeutral","Race IAT","incongruent","SCIAT first","male",22,19,"I don't know",FALSE,FALSE,FALSE
468,1,403,"primeNeutral","Race IAT","incongruent","SCIAT first","male",22,19,"I don't know",FALSE,FALSE,FALSE
468,1,552,"primeRace","Race IAT","incongruent","SCIAT first","male",22,19,"I don't know",FALSE,FALSE,FALSE
468,0,495,"primeRace","Race IAT","incongruent","SCIAT first","male",22,19,"I don't know",FALSE,FALSE,FALSE
468,1,521,"primeNeutral","Race IAT","incongruent","SCIAT first","male",22,19,"I don't know",FALSE,FALSE,FALSE
468,1,874,"primeRace","Race IAT","incongruent","SCIAT first","male",22,19,"I don't know",FALSE,FALSE,FALSE
468,1,917,"primeRace","Race IAT","incongruent","SCIAT first","male",22,19,"I don't know",FALSE,FALSE,FALSE
468,1,533,"primeNeutral","Race IAT","incongruent","SCIAT first","male",22,19,"I don't know",FALSE,FALSE,FALSE
468,1,541,"primeNeutral","Race IAT","incongruent","SCIAT first","male",22,19,"I don't know",FALSE,FALSE,FALSE
468,0,405,"primeRace","Race IAT","incongruent","SCIAT first","male",22,19,"I don't know",FALSE,FALSE,FALSE
468,0,610,"primeRace","Race IAT","incongruent","SCIAT first","male",22,19,"I don't know",FALSE,FALSE,FALSE
468,0,424,"primeNeutral","Race IAT","incongruent","SCIAT first","male",22,19,"I don't know",FALSE,FALSE,FALSE
468,1,556,"primeNeutral","Race IAT","incongruent","SCIAT first","male",22,19,"I don't know",FALSE,FALSE,FALSE
468,1,403,"primeRace","Race IAT","incongruent","SCIAT first","male",22,19,"I don't know",FALSE,FALSE,FALSE
468,0,513,"primeRace","Race IAT","incongruent","SCIAT first","male",22,19,"I don't know",FALSE,FALSE,FALSE
468,1,394,"primeRace","Race IAT","incongruent","SCIAT first","male",22,19,"I don't know",FALSE,FALSE,FALSE
468,1,1376,"primeRace","Race IAT","incongruent","SCIAT first","male",22,19,"I don't know",FALSE,FALSE,FALSE
468,0,599,"primeRace","Race IAT","incongruent","SCIAT first","male",22,19,"I don't know",FALSE,FALSE,FALSE
468,1,524,"primeNeutral","Race IAT","incongruent","SCIAT first","male",22,19,"I don't know",FALSE,FALSE,FALSE
464,1,1503,"primeNeutral","Flowers-Insects IAT","incongruent","SCIAT first","male",32,13,"I don't know",FALSE,FALSE,FALSE
464,1,993,"primeNeutral","Flowers-Insects IAT","incongruent","SCIAT first","male",32,13,"I don't know",FALSE,FALSE,FALSE
464,1,901,"primeRace","Flowers-Insects IAT","incongruent","SCIAT first","male",32,13,"I don't know",FALSE,FALSE,FALSE
464,1,789,"primeRace","Flowers-Insects IAT","incongruent","SCIAT first","male",32,13,"I don't know",FALSE,FALSE,FALSE
464,1,389,"primeRace","Flowers-Insects IAT","incongruent","SCIAT first","male",32,13,"I don't know",FALSE,FALSE,FALSE
464,1,408,"primeNeutral","Flowers-Insects IAT","incongruent","SCIAT first","male",32,13,"I don't know",FALSE,FALSE,FALSE
464,0,911,"primeRace","Flowers-Insects IAT","incongruent","SCIAT first","male",32,13,"I don't know",FALSE,FALSE,FALSE
464,1,627,"primeNeutral","Flowers-Insects IAT","incongruent","SCIAT first","male",32,13,"I don't know",FALSE,FALSE,FALSE
464,1,466,"primeNeutral","Flowers-Insects IAT","incongruent","SCIAT first","male",32,13,"I don't know",FALSE,FALSE,FALSE
464,1,608,"primeRace","Flowers-Insects IAT","incongruent","SCIAT first","male",32,13,"I don't know",FALSE,FALSE,FALSE
464,1,471,"primeNeutral","Flowers-Insects IAT","incongruent","SCIAT first","male",32,13,"I don't know",FALSE,FALSE,FALSE
464,1,500,"primeRace","Flowers-Insects IAT","incongruent","SCIAT first","male",32,13,"I don't know",FALSE,FALSE,FALSE
464,1,623,"primeNeutral","Flowers-Insects IAT","incongruent","SCIAT first","male",32,13,"I don't know",FALSE,FALSE,FALSE
464,1,773,"primeRace","Flowers-Insects IAT","incongruent","SCIAT first","male",32,13,"I don't know",FALSE,FALSE,FALSE
464,1,508,"primeNeutral","Flowers-Insects IAT","incongruent","SCIAT first","male",32,13,"I don't know",FALSE,FALSE,FALSE
464,1,462,"primeRace","Flowers-Insects IAT","incongruent","SCIAT first","male",32,13,"I don't know",FALSE,FALSE,FALSE
464,1,462,"primeRace","Flowers-Insects IAT","incongruent","SCIAT first","male",32,13,"I don't know",FALSE,FALSE,FALSE
464,1,479,"primeRace","Flowers-Insects IAT","incongruent","SCIAT first","male",32,13,"I don't know",FALSE,FALSE,FALSE
464,1,472,"primeNeutral","Flowers-Insects IAT","incongruent","SCIAT first","male",32,13,"I don't know",FALSE,FALSE,FALSE
464,1,464,"primeRace","Flowers-Insects IAT","incongruent","SCIAT first","male",32,13,"I don't know",FALSE,FALSE,FALSE
464,1,629,"primeNeutral","Flowers-Insects IAT","incongruent","SCIAT first","male",32,13,"I don't know",FALSE,FALSE,FALSE
464,1,599,"primeRace","Flowers-Insects IAT","incongruent","SCIAT first","male",32,13,"I don't know",FALSE,FALSE,FALSE
464,1,610,"primeRace","Flowers-Insects IAT","incongruent","SCIAT first","male",32,13,"I don't know",FALSE,FALSE,FALSE
464,1,978,"primeRace","Flowers-Insects IAT","incongruent","SCIAT first","male",32,13,"I don't know",FALSE,FALSE,FALSE
464,1,478,"primeRace","Flowers-Insects IAT","incongruent","SCIAT first","male",32,13,"I don't know",FALSE,FALSE,FALSE
464,0,476,"primeNeutral","Flowers-Insects IAT","incongruent","SCIAT first","male",32,13,"I don't know",FALSE,FALSE,FALSE
464,1,414,"primeRace","Flowers-Insects IAT","incongruent","SCIAT first","male",32,13,"I don't know",FALSE,FALSE,FALSE
464,1,1098,"primeRace","Flowers-Insects IAT","incongruent","SCIAT first","male",32,13,"I don't know",FALSE,FALSE,FALSE
464,1,994,"primeNeutral","Flowers-Insects IAT","incongruent","SCIAT first","male",32,13,"I don't know",FALSE,FALSE,FALSE
464,1,895,"primeRace","Flowers-Insects IAT","incongruent","SCIAT first","male",32,13,"I don't know",FALSE,FALSE,FALSE
464,1,596,"primeNeutral","Flowers-Insects IAT","incongruent","SCIAT first","male",32,13,"I don't know",FALSE,FALSE,FALSE
464,1,743,"primeNeutral","Flowers-Insects IAT","incongruent","SCIAT first","male",32,13,"I don't know",FALSE,FALSE,FALSE
464,1,1039,"primeNeutral","Flowers-Insects IAT","incongruent","SCIAT first","male",32,13,"I don't know",FALSE,FALSE,FALSE
464,1,736,"primeRace","Flowers-Insects IAT","incongruent","SCIAT first","male",32,13,"I don't know",FALSE,FALSE,FALSE
464,0,1996,"primeNeutral","Flowers-Insects IAT","incongruent","SCIAT first","male",32,13,"I don't know",FALSE,FALSE,FALSE
464,0,1124,"primeNeutral","Flowers-Insects IAT","incongruent","SCIAT first","male",32,13,"I don't know",FALSE,FALSE,FALSE
464,1,423,"primeRace","Flowers-Insects IAT","incongruent","SCIAT first","male",32,13,"I don't know",FALSE,FALSE,FALSE
464,1,406,"primeRace","Flowers-Insects IAT","incongruent","SCIAT first","male",32,13,"I don't know",FALSE,FALSE,FALSE
464,0,351,"primeRace","Flowers-Insects IAT","incongruent","SCIAT first","male",32,13,"I don't know",FALSE,FALSE,FALSE
464,1,413,"primeRace","Flowers-Insects IAT","incongruent","SCIAT first","male",32,13,"I don't know",FALSE,FALSE,FALSE
464,0,954,"primeNeutral","Flowers-Insects IAT","incongruent","SCIAT first","male",32,13,"I don't know",FALSE,FALSE,FALSE
464,0,880,"primeNeutral","Flowers-Insects IAT","incongruent","SCIAT first","male",32,13,"I don't know",FALSE,FALSE,FALSE
464,0,597,"primeNeutral","Flowers-Insects IAT","incongruent","SCIAT first","male",32,13,"I don't know",FALSE,FALSE,FALSE
464,0,677,"primeNeutral","Flowers-Insects IAT","incongruent","SCIAT first","male",32,13,"I don't know",FALSE,FALSE,FALSE
464,0,541,"primeNeutral","Flowers-Insects IAT","incongruent","SCIAT first","male",32,13,"I don't know",FALSE,FALSE,FALSE
464,0,610,"primeNeutral","Flowers-Insects IAT","incongruent","SCIAT first","male",32,13,"I don't know",FALSE,FALSE,FALSE
464,0,554,"primeNeutral","Flowers-Insects IAT","incongruent","SCIAT first","male",32,13,"I don't know",FALSE,FALSE,FALSE
464,0,457,"primeNeutral","Flowers-Insects IAT","incongruent","SCIAT first","male",32,13,"I don't know",FALSE,FALSE,FALSE
464,0,460,"primeNeutral","Flowers-Insects IAT","incongruent","SCIAT first","male",32,13,"I don't know",FALSE,FALSE,FALSE
464,0,418,"primeNeutral","Flowers-Insects IAT","incongruent","SCIAT first","male",32,13,"I don't know",FALSE,FALSE,FALSE
464,0,519,"primeNeutral","Flowers-Insects IAT","incongruent","SCIAT first","male",32,13,"I don't know",FALSE,FALSE,FALSE
464,1,422,"primeRace","Flowers-Insects IAT","incongruent","SCIAT first","male",32,13,"I don't know",FALSE,FALSE,FALSE
464,0,565,"primeNeutral","Flowers-Insects IAT","incongruent","SCIAT first","male",32,13,"I don't know",FALSE,FALSE,FALSE
464,0,475,"primeNeutral","Flowers-Insects IAT","incongruent","SCIAT first","male",32,13,"I don't know",FALSE,FALSE,FALSE
464,1,392,"primeRace","Flowers-Insects IAT","incongruent","SCIAT first","male",32,13,"I don't know",FALSE,FALSE,FALSE
464,1,383,"primeRace","Flowers-Insects IAT","incongruent","SCIAT first","male",32,13,"I don't know",FALSE,FALSE,FALSE
464,0,550,"primeNeutral","Flowers-Insects IAT","incongruent","SCIAT first","male",32,13,"I don't know",FALSE,FALSE,FALSE
464,1,377,"primeRace","Flowers-Insects IAT","incongruent","SCIAT first","male",32,13,"I don't know",FALSE,FALSE,FALSE
464,1,335,"primeRace","Flowers-Insects IAT","incongruent","SCIAT first","male",32,13,"I don't know",FALSE,FALSE,FALSE
464,0,771,"primeNeutral","Flowers-Insects IAT","incongruent","SCIAT first","male",32,13,"I don't know",FALSE,FALSE,FALSE
464,0,464,"primeNeutral","Flowers-Insects IAT","incongruent","SCIAT first","male",32,13,"I don't know",FALSE,FALSE,FALSE
464,0,390,"primeNeutral","Flowers-Insects IAT","incongruent","SCIAT first","male",32,13,"I don't know",FALSE,FALSE,FALSE
464,1,405,"primeRace","Flowers-Insects IAT","incongruent","SCIAT first","male",32,13,"I don't know",FALSE,FALSE,FALSE
464,0,1275,"primeNeutral","Flowers-Insects IAT","incongruent","SCIAT first","male",32,13,"I don't know",FALSE,FALSE,FALSE
464,1,352,"primeRace","Flowers-Insects IAT","incongruent","SCIAT first","male",32,13,"I don't know",FALSE,FALSE,FALSE
464,1,400,"primeRace","Flowers-Insects IAT","incongruent","SCIAT first","male",32,13,"I don't know",FALSE,FALSE,FALSE
464,1,394,"primeRace","Flowers-Insects IAT","incongruent","SCIAT first","male",32,13,"I don't know",FALSE,FALSE,FALSE
464,1,1408,"primeNeutral","Flowers-Insects IAT","incongruent","SCIAT first","male",32,13,"I don't know",FALSE,FALSE,FALSE
464,1,429,"primeRace","Flowers-Insects IAT","incongruent","SCIAT first","male",32,13,"I don't know",FALSE,FALSE,FALSE
464,0,695,"primeNeutral","Flowers-Insects IAT","incongruent","SCIAT first","male",32,13,"I don't know",FALSE,FALSE,FALSE
464,1,365,"primeRace","Flowers-Insects IAT","incongruent","SCIAT first","male",32,13,"I don't know",FALSE,FALSE,FALSE
464,0,571,"primeNeutral","Flowers-Insects IAT","incongruent","SCIAT first","male",32,13,"I don't know",FALSE,FALSE,FALSE
464,1,325,"primeRace","Flowers-Insects IAT","incongruent","SCIAT first","male",32,13,"I don't know",FALSE,FALSE,FALSE
464,0,473,"primeNeutral","Flowers-Insects IAT","incongruent","SCIAT first","male",32,13,"I don't know",FALSE,FALSE,FALSE
464,1,355,"primeRace","Flowers-Insects IAT","incongruent","SCIAT first","male",32,13,"I don't know",FALSE,FALSE,FALSE
464,0,486,"primeNeutral","Flowers-Insects IAT","incongruent","SCIAT first","male",32,13,"I don't know",FALSE,FALSE,FALSE
464,0,536,"primeNeutral","Flowers-Insects IAT","incongruent","SCIAT first","male",32,13,"I don't know",FALSE,FALSE,FALSE
464,1,386,"primeRace","Flowers-Insects IAT","incongruent","SCIAT first","male",32,13,"I don't know",FALSE,FALSE,FALSE
464,0,518,"primeNeutral","Flowers-Insects IAT","incongruent","SCIAT first","male",32,13,"I don't know",FALSE,FALSE,FALSE
464,0,536,"primeNeutral","Flowers-Insects IAT","incongruent","SCIAT first","male",32,13,"I don't know",FALSE,FALSE,FALSE
464,1,777,"primeRace","Flowers-Insects IAT","incongruent","SCIAT first","male",32,13,"I don't know",FALSE,FALSE,FALSE
464,0,495,"primeNeutral","Flowers-Insects IAT","incongruent","SCIAT first","male",32,13,"I don't know",FALSE,FALSE,FALSE
464,1,335,"primeRace","Flowers-Insects IAT","incongruent","SCIAT first","male",32,13,"I don't know",FALSE,FALSE,FALSE
464,1,365,"primeRace","Flowers-Insects IAT","incongruent","SCIAT first","male",32,13,"I don't know",FALSE,FALSE,FALSE
464,0,584,"primeNeutral","Flowers-Insects IAT","incongruent","SCIAT first","male",32,13,"I don't know",FALSE,FALSE,FALSE
464,1,461,"primeRace","Flowers-Insects IAT","incongruent","SCIAT first","male",32,13,"I don't know",FALSE,FALSE,FALSE
464,1,325,"primeRace","Flowers-Insects IAT","incongruent","SCIAT first","male",32,13,"I don't know",FALSE,FALSE,FALSE
464,1,321,"primeRace","Flowers-Insects IAT","incongruent","SCIAT first","male",32,13,"I don't know",FALSE,FALSE,FALSE
464,0,615,"primeNeutral","Flowers-Insects IAT","incongruent","SCIAT first","male",32,13,"I don't know",FALSE,FALSE,FALSE
464,0,521,"primeNeutral","Flowers-Insects IAT","incongruent","SCIAT first","male",32,13,"I don't know",FALSE,FALSE,FALSE
464,1,321,"primeRace","Flowers-Insects IAT","incongruent","SCIAT first","male",32,13,"I don't know",FALSE,FALSE,FALSE
464,1,327,"primeRace","Flowers-Insects IAT","incongruent","SCIAT first","male",32,13,"I don't know",FALSE,FALSE,FALSE
464,1,315,"primeRace","Flowers-Insects IAT","incongruent","SCIAT first","male",32,13,"I don't know",FALSE,FALSE,FALSE
464,1,278,"primeRace","Flowers-Insects IAT","incongruent","SCIAT first","male",32,13,"I don't know",FALSE,FALSE,FALSE
464,0,390,"primeNeutral","Flowers-Insects IAT","incongruent","SCIAT first","male",32,13,"I don't know",FALSE,FALSE,FALSE
464,0,415,"primeNeutral","Flowers-Insects IAT","incongruent","SCIAT first","male",32,13,"I don't know",FALSE,FALSE,FALSE
464,0,416,"primeNeutral","Flowers-Insects IAT","incongruent","SCIAT first","male",32,13,"I don't know",FALSE,FALSE,FALSE
464,1,292,"primeRace","Flowers-Insects IAT","incongruent","SCIAT first","male",32,13,"I don't know",FALSE,FALSE,FALSE
464,1,321,"primeRace","Flowers-Insects IAT","incongruent","SCIAT first","male",32,13,"I don't know",FALSE,FALSE,FALSE
464,1,323,"primeRace","Flowers-Insects IAT","incongruent","SCIAT first","male",32,13,"I don't know",FALSE,FALSE,FALSE
454,1,873,"primeNeutral","Flowers-Insects IAT","incongruent","ratings first","male",43,16,"Only black faces",FALSE,TRUE,FALSE
454,1,691,"primeRace","Flowers-Insects IAT","incongruent","ratings first","male",43,16,"Only black faces",FALSE,TRUE,FALSE
454,1,638,"primeRace","Flowers-Insects IAT","incongruent","ratings first","male",43,16,"Only black faces",FALSE,TRUE,FALSE
454,0,720,"primeNeutral","Flowers-Insects IAT","incongruent","ratings first","male",43,16,"Only black faces",FALSE,TRUE,FALSE
454,1,1421,"primeNeutral","Flowers-Insects IAT","incongruent","ratings first","male",43,16,"Only black faces",FALSE,TRUE,FALSE
454,0,722,"primeNeutral","Flowers-Insects IAT","incongruent","ratings first","male",43,16,"Only black faces",FALSE,TRUE,FALSE
454,1,441,"primeRace","Flowers-Insects IAT","incongruent","ratings first","male",43,16,"Only black faces",FALSE,TRUE,FALSE
454,1,351,"primeRace","Flowers-Insects IAT","incongruent","ratings first","male",43,16,"Only black faces",FALSE,TRUE,FALSE
454,1,395,"primeRace","Flowers-Insects IAT","incongruent","ratings first","male",43,16,"Only black faces",FALSE,TRUE,FALSE
454,0,721,"primeNeutral","Flowers-Insects IAT","incongruent","ratings first","male",43,16,"Only black faces",FALSE,TRUE,FALSE
454,1,418,"primeRace","Flowers-Insects IAT","incongruent","ratings first","male",43,16,"Only black faces",FALSE,TRUE,FALSE
454,1,729,"primeRace","Flowers-Insects IAT","incongruent","ratings first","male",43,16,"Only black faces",FALSE,TRUE,FALSE
454,0,708,"primeNeutral","Flowers-Insects IAT","incongruent","ratings first","male",43,16,"Only black faces",FALSE,TRUE,FALSE
454,1,587,"primeRace","Flowers-Insects IAT","incongruent","ratings first","male",43,16,"Only black faces",FALSE,TRUE,FALSE
454,1,626,"primeRace","Flowers-Insects IAT","incongruent","ratings first","male",43,16,"Only black faces",FALSE,TRUE,FALSE
454,1,730,"primeRace","Flowers-Insects IAT","incongruent","ratings first","male",43,16,"Only black faces",FALSE,TRUE,FALSE
454,0,343,"primeNeutral","Flowers-Insects IAT","incongruent","ratings first","male",43,16,"Only black faces",FALSE,TRUE,FALSE
454,0,565,"primeNeutral","Flowers-Insects IAT","incongruent","ratings first","male",43,16,"Only black faces",FALSE,TRUE,FALSE
454,1,329,"primeRace","Flowers-Insects IAT","incongruent","ratings first","male",43,16,"Only black faces",FALSE,TRUE,FALSE
454,1,341,"primeRace","Flowers-Insects IAT","incongruent","ratings first","male",43,16,"Only black faces",FALSE,TRUE,FALSE
454,0,439,"primeNeutral","Flowers-Insects IAT","incongruent","ratings first","male",43,16,"Only black faces",FALSE,TRUE,FALSE
454,0,463,"primeNeutral","Flowers-Insects IAT","incongruent","ratings first","male",43,16,"Only black faces",FALSE,TRUE,FALSE
454,0,377,"primeNeutral","Flowers-Insects IAT","incongruent","ratings first","male",43,16,"Only black faces",FALSE,TRUE,FALSE
454,1,344,"primeRace","Flowers-Insects IAT","incongruent","ratings first","male",43,16,"Only black faces",FALSE,TRUE,FALSE
454,0,449,"primeNeutral","Flowers-Insects IAT","incongruent","ratings first","male",43,16,"Only black faces",FALSE,TRUE,FALSE
454,1,321,"primeRace","Flowers-Insects IAT","incongruent","ratings first","male",43,16,"Only black faces",FALSE,TRUE,FALSE
454,1,1195,"primeRace","Flowers-Insects IAT","incongruent","ratings first","male",43,16,"Only black faces",FALSE,TRUE,FALSE
454,0,476,"primeNeutral","Flowers-Insects IAT","incongruent","ratings first","male",43,16,"Only black faces",FALSE,TRUE,FALSE
454,1,486,"primeRace","Flowers-Insects IAT","incongruent","ratings first","male",43,16,"Only black faces",FALSE,TRUE,FALSE
454,0,407,"primeNeutral","Flowers-Insects IAT","incongruent","ratings first","male",43,16,"Only black faces",FALSE,TRUE,FALSE
454,1,589,"primeNeutral","Flowers-Insects IAT","incongruent","ratings first","male",43,16,"Only black faces",FALSE,TRUE,FALSE
454,0,1002,"primeNeutral","Flowers-Insects IAT","incongruent","ratings first","male",43,16,"Only black faces",FALSE,TRUE,FALSE
454,1,399,"primeRace","Flowers-Insects IAT","incongruent","ratings first","male",43,16,"Only black faces",FALSE,TRUE,FALSE
454,1,371,"primeRace","Flowers-Insects IAT","incongruent","ratings first","male",43,16,"Only black faces",FALSE,TRUE,FALSE
454,0,516,"primeNeutral","Flowers-Insects IAT","incongruent","ratings first","male",43,16,"Only black faces",FALSE,TRUE,FALSE
454,1,512,"primeNeutral","Flowers-Insects IAT","incongruent","ratings first","male",43,16,"Only black faces",FALSE,TRUE,FALSE
454,1,347,"primeRace","Flowers-Insects IAT","incongruent","ratings first","male",43,16,"Only black faces",FALSE,TRUE,FALSE
454,1,157,"primeRace","Flowers-Insects IAT","incongruent","ratings first","male",43,16,"Only black faces",FALSE,TRUE,FALSE
454,1,313,"primeRace","Flowers-Insects IAT","incongruent","ratings first","male",43,16,"Only black faces",FALSE,TRUE,FALSE
454,1,217,"primeRace","Flowers-Insects IAT","incongruent","ratings first","male",43,16,"Only black faces",FALSE,TRUE,FALSE
454,0,286,"primeNeutral","Flowers-Insects IAT","incongruent","ratings first","male",43,16,"Only black faces",FALSE,TRUE,FALSE
454,0,432,"primeNeutral","Flowers-Insects IAT","incongruent","ratings first","male",43,16,"Only black faces",FALSE,TRUE,FALSE
454,0,342,"primeNeutral","Flowers-Insects IAT","incongruent","ratings first","male",43,16,"Only black faces",FALSE,TRUE,FALSE
454,1,265,"primeRace","Flowers-Insects IAT","incongruent","ratings first","male",43,16,"Only black faces",FALSE,TRUE,FALSE
454,1,304,"primeRace","Flowers-Insects IAT","incongruent","ratings first","male",43,16,"Only black faces",FALSE,TRUE,FALSE
454,0,585,"primeNeutral","Flowers-Insects IAT","incongruent","ratings first","male",43,16,"Only black faces",FALSE,TRUE,FALSE
454,0,486,"primeNeutral","Flowers-Insects IAT","incongruent","ratings first","male",43,16,"Only black faces",FALSE,TRUE,FALSE
454,1,300,"primeRace","Flowers-Insects IAT","incongruent","ratings first","male",43,16,"Only black faces",FALSE,TRUE,FALSE
454,1,320,"primeRace","Flowers-Insects IAT","incongruent","ratings first","male",43,16,"Only black faces",FALSE,TRUE,FALSE
454,1,189,"primeRace","Flowers-Insects IAT","incongruent","ratings first","male",43,16,"Only black faces",FALSE,TRUE,FALSE
454,0,413,"primeNeutral","Flowers-Insects IAT","incongruent","ratings first","male",43,16,"Only black faces",FALSE,TRUE,FALSE
454,1,276,"primeRace","Flowers-Insects IAT","incongruent","ratings first","male",43,16,"Only black faces",FALSE,TRUE,FALSE
454,0,388,"primeNeutral","Flowers-Insects IAT","incongruent","ratings first","male",43,16,"Only black faces",FALSE,TRUE,FALSE
454,0,318,"primeRace","Flowers-Insects IAT","incongruent","ratings first","male",43,16,"Only black faces",FALSE,TRUE,FALSE
454,0,408,"primeNeutral","Flowers-Insects IAT","incongruent","ratings first","male",43,16,"Only black faces",FALSE,TRUE,FALSE
454,1,253,"primeRace","Flowers-Insects IAT","incongruent","ratings first","male",43,16,"Only black faces",FALSE,TRUE,FALSE
454,1,245,"primeRace","Flowers-Insects IAT","incongruent","ratings first","male",43,16,"Only black faces",FALSE,TRUE,FALSE
454,1,245,"primeNeutral","Flowers-Insects IAT","incongruent","ratings first","male",43,16,"Only black faces",FALSE,TRUE,FALSE
454,1,368,"primeRace","Flowers-Insects IAT","incongruent","ratings first","male",43,16,"Only black faces",FALSE,TRUE,FALSE
454,0,405,"primeNeutral","Flowers-Insects IAT","incongruent","ratings first","male",43,16,"Only black faces",FALSE,TRUE,FALSE
454,1,404,"primeRace","Flowers-Insects IAT","incongruent","ratings first","male",43,16,"Only black faces",FALSE,TRUE,FALSE
454,1,470,"primeRace","Flowers-Insects IAT","incongruent","ratings first","male",43,16,"Only black faces",FALSE,TRUE,FALSE
454,1,170,"primeRace","Flowers-Insects IAT","incongruent","ratings first","male",43,16,"Only black faces",FALSE,TRUE,FALSE
454,1,561,"primeNeutral","Flowers-Insects IAT","incongruent","ratings first","male",43,16,"Only black faces",FALSE,TRUE,FALSE
454,1,359,"primeRace","Flowers-Insects IAT","incongruent","ratings first","male",43,16,"Only black faces",FALSE,TRUE,FALSE
454,0,397,"primeNeutral","Flowers-Insects IAT","incongruent","ratings first","male",43,16,"Only black faces",FALSE,TRUE,FALSE
454,0,419,"primeNeutral","Flowers-Insects IAT","incongruent","ratings first","male",43,16,"Only black faces",FALSE,TRUE,FALSE
454,1,206,"primeRace","Flowers-Insects IAT","incongruent","ratings first","male",43,16,"Only black faces",FALSE,TRUE,FALSE
454,0,344,"primeNeutral","Flowers-Insects IAT","incongruent","ratings first","male",43,16,"Only black faces",FALSE,TRUE,FALSE
454,1,337,"primeRace","Flowers-Insects IAT","incongruent","ratings first","male",43,16,"Only black faces",FALSE,TRUE,FALSE
454,1,438,"primeNeutral","Flowers-Insects IAT","incongruent","ratings first","male",43,16,"Only black faces",FALSE,TRUE,FALSE
454,1,475,"primeRace","Flowers-Insects IAT","incongruent","ratings first","male",43,16,"Only black faces",FALSE,TRUE,FALSE
454,1,346,"primeRace","Flowers-Insects IAT","incongruent","ratings first","male",43,16,"Only black faces",FALSE,TRUE,FALSE
454,0,391,"primeNeutral","Flowers-Insects IAT","incongruent","ratings first","male",43,16,"Only black faces",FALSE,TRUE,FALSE
454,0,469,"primeNeutral","Flowers-Insects IAT","incongruent","ratings first","male",43,16,"Only black faces",FALSE,TRUE,FALSE
454,1,184,"primeRace","Flowers-Insects IAT","incongruent","ratings first","male",43,16,"Only black faces",FALSE,TRUE,FALSE
454,0,578,"primeNeutral","Flowers-Insects IAT","incongruent","ratings first","male",43,16,"Only black faces",FALSE,TRUE,FALSE
454,0,396,"primeNeutral","Flowers-Insects IAT","incongruent","ratings first","male",43,16,"Only black faces",FALSE,TRUE,FALSE
454,1,176,"primeRace","Flowers-Insects IAT","incongruent","ratings first","male",43,16,"Only black faces",FALSE,TRUE,FALSE
454,0,410,"primeNeutral","Flowers-Insects IAT","incongruent","ratings first","male",43,16,"Only black faces",FALSE,TRUE,FALSE
454,1,196,"primeRace","Flowers-Insects IAT","incongruent","ratings first","male",43,16,"Only black faces",FALSE,TRUE,FALSE
454,0,358,"primeNeutral","Flowers-Insects IAT","incongruent","ratings first","male",43,16,"Only black faces",FALSE,TRUE,FALSE
454,0,318,"primeNeutral","Flowers-Insects IAT","incongruent","ratings first","male",43,16,"Only black faces",FALSE,TRUE,FALSE
454,1,117,"primeRace","Flowers-Insects IAT","incongruent","ratings first","male",43,16,"Only black faces",FALSE,TRUE,FALSE
454,0,355,"primeNeutral","Flowers-Insects IAT","incongruent","ratings first","male",43,16,"Only black faces",FALSE,TRUE,FALSE
454,1,111,"primeRace","Flowers-Insects IAT","incongruent","ratings first","male",43,16,"Only black faces",FALSE,TRUE,FALSE
454,0,210,"primeNeutral","Flowers-Insects IAT","incongruent","ratings first","male",43,16,"Only black faces",FALSE,TRUE,FALSE
454,1,177,"primeRace","Flowers-Insects IAT","incongruent","ratings first","male",43,16,"Only black faces",FALSE,TRUE,FALSE
454,0,331,"primeNeutral","Flowers-Insects IAT","incongruent","ratings first","male",43,16,"Only black faces",FALSE,TRUE,FALSE
454,1,133,"primeRace","Flowers-Insects IAT","incongruent","ratings first","male",43,16,"Only black faces",FALSE,TRUE,FALSE
454,0,248,"primeNeutral","Flowers-Insects IAT","incongruent","ratings first","male",43,16,"Only black faces",FALSE,TRUE,FALSE
454,0,313,"primeNeutral","Flowers-Insects IAT","incongruent","ratings first","male",43,16,"Only black faces",FALSE,TRUE,FALSE
454,1,237,"primeRace","Flowers-Insects IAT","incongruent","ratings first","male",43,16,"Only black faces",FALSE,TRUE,FALSE
454,1,445,"primeNeutral","Flowers-Insects IAT","incongruent","ratings first","male",43,16,"Only black faces",FALSE,TRUE,FALSE
454,0,485,"primeNeutral","Flowers-Insects IAT","incongruent","ratings first","male",43,16,"Only black faces",FALSE,TRUE,FALSE
454,0,365,"primeNeutral","Flowers-Insects IAT","incongruent","ratings first","male",43,16,"Only black faces",FALSE,TRUE,FALSE
454,1,346,"primeRace","Flowers-Insects IAT","incongruent","ratings first","male",43,16,"Only black faces",FALSE,TRUE,FALSE
454,0,501,"primeNeutral","Flowers-Insects IAT","incongruent","ratings first","male",43,16,"Only black faces",FALSE,TRUE,FALSE
454,0,290,"primeNeutral","Flowers-Insects IAT","incongruent","ratings first","male",43,16,"Only black faces",FALSE,TRUE,FALSE
454,1,297,"primeRace","Flowers-Insects IAT","incongruent","ratings first","male",43,16,"Only black faces",FALSE,TRUE,FALSE
471,1,1086,"primeNeutral","Flowers-Insects IAT","congruent","SCIAT first","female",19,18,"Only black faces",FALSE,TRUE,FALSE
471,1,552,"primeRace","Flowers-Insects IAT","congruent","SCIAT first","female",19,18,"Only black faces",FALSE,TRUE,FALSE
471,1,453,"primeNeutral","Flowers-Insects IAT","congruent","SCIAT first","female",19,18,"Only black faces",FALSE,TRUE,FALSE
471,1,413,"primeRace","Flowers-Insects IAT","congruent","SCIAT first","female",19,18,"Only black faces",FALSE,TRUE,FALSE
471,0,332,"primeRace","Flowers-Insects IAT","congruent","SCIAT first","female",19,18,"Only black faces",FALSE,TRUE,FALSE
471,1,309,"primeNeutral","Flowers-Insects IAT","congruent","SCIAT first","female",19,18,"Only black faces",FALSE,TRUE,FALSE
471,1,885,"primeRace","Flowers-Insects IAT","congruent","SCIAT first","female",19,18,"Only black faces",FALSE,TRUE,FALSE
471,1,403,"primeRace","Flowers-Insects IAT","congruent","SCIAT first","female",19,18,"Only black faces",FALSE,TRUE,FALSE
471,1,382,"primeNeutral","Flowers-Insects IAT","congruent","SCIAT first","female",19,18,"Only black faces",FALSE,TRUE,FALSE
471,1,508,"primeNeutral","Flowers-Insects IAT","congruent","SCIAT first","female",19,18,"Only black faces",FALSE,TRUE,FALSE
471,1,1087,"primeNeutral","Flowers-Insects IAT","congruent","SCIAT first","female",19,18,"Only black faces",FALSE,TRUE,FALSE
471,1,503,"primeNeutral","Flowers-Insects IAT","congruent","SCIAT first","female",19,18,"Only black faces",FALSE,TRUE,FALSE
471,1,359,"primeRace","Flowers-Insects IAT","congruent","SCIAT first","female",19,18,"Only black faces",FALSE,TRUE,FALSE
471,0,344,"primeNeutral","Flowers-Insects IAT","congruent","SCIAT first","female",19,18,"Only black faces",FALSE,TRUE,FALSE
471,1,328,"primeRace","Flowers-Insects IAT","congruent","SCIAT first","female",19,18,"Only black faces",FALSE,TRUE,FALSE
471,1,748,"primeRace","Flowers-Insects IAT","congruent","SCIAT first","female",19,18,"Only black faces",FALSE,TRUE,FALSE
471,1,347,"primeRace","Flowers-Insects IAT","congruent","SCIAT first","female",19,18,"Only black faces",FALSE,TRUE,FALSE
471,1,614,"primeNeutral","Flowers-Insects IAT","congruent","SCIAT first","female",19,18,"Only black faces",FALSE,TRUE,FALSE
471,1,351,"primeNeutral","Flowers-Insects IAT","congruent","SCIAT first","female",19,18,"Only black faces",FALSE,TRUE,FALSE
471,1,442,"primeRace","Flowers-Insects IAT","congruent","SCIAT first","female",19,18,"Only black faces",FALSE,TRUE,FALSE
471,0,425,"primeRace","Flowers-Insects IAT","congruent","SCIAT first","female",19,18,"Only black faces",FALSE,TRUE,FALSE
471,1,598,"primeRace","Flowers-Insects IAT","congruent","SCIAT first","female",19,18,"Only black faces",FALSE,TRUE,FALSE
471,1,355,"primeNeutral","Flowers-Insects IAT","congruent","SCIAT first","female",19,18,"Only black faces",FALSE,TRUE,FALSE
471,0,2469,"primeRace","Flowers-Insects IAT","congruent","SCIAT first","female",19,18,"Only black faces",FALSE,TRUE,FALSE
471,1,600,"primeNeutral","Flowers-Insects IAT","congruent","SCIAT first","female",19,18,"Only black faces",FALSE,TRUE,FALSE
471,0,822,"primeNeutral","Flowers-Insects IAT","congruent","SCIAT first","female",19,18,"Only black faces",FALSE,TRUE,FALSE
471,1,488,"primeNeutral","Flowers-Insects IAT","congruent","SCIAT first","female",19,18,"Only black faces",FALSE,TRUE,FALSE
471,1,345,"primeRace","Flowers-Insects IAT","congruent","SCIAT first","female",19,18,"Only black faces",FALSE,TRUE,FALSE
471,1,314,"primeNeutral","Flowers-Insects IAT","congruent","SCIAT first","female",19,18,"Only black faces",FALSE,TRUE,FALSE
471,1,479,"primeRace","Flowers-Insects IAT","congruent","SCIAT first","female",19,18,"Only black faces",FALSE,TRUE,FALSE
471,1,580,"primeRace","Flowers-Insects IAT","congruent","SCIAT first","female",19,18,"Only black faces",FALSE,TRUE,FALSE
471,1,501,"primeNeutral","Flowers-Insects IAT","congruent","SCIAT first","female",19,18,"Only black faces",FALSE,TRUE,FALSE
471,1,546,"primeNeutral","Flowers-Insects IAT","congruent","SCIAT first","female",19,18,"Only black faces",FALSE,TRUE,FALSE
471,1,899,"primeNeutral","Flowers-Insects IAT","congruent","SCIAT first","female",19,18,"Only black faces",FALSE,TRUE,FALSE
