"participant","block_n","trial_n","task","item","response","accuracy","rt","amp_recognition_response"
481,NA,NA,NA,NA,NA,NA,NA,"Both white and black faces"
481,"1","4","AMP_practice","primeNeutralpractice","23","1","2678",NA
481,"1","5","AMP_practice","primeRacepractice","23","0","1102",NA
481,"1","6","AMP_practice","primeNeutralpractice","23","1","1466",NA
481,"1","7","AMP_practice","primeNeutralpractice","23","1","731",NA
481,"1","8","AMP_practice","primeNeutralpractice","18","1","747",NA
481,"1","9","AMP_practice","primeRacepractice","18","1","884",NA
481,"1","10","AMP_practice","primeRacepractice","23","0","788",NA
481,"1","11","AMP_practice","primeNeutralpractice","23","1","616",NA
481,"1","12","AMP_practice","primeRacepractice","23","0","602",NA
481,"1","13","AMP_practice","primeRacepractice","23","0","680",NA
481,"2","2","AMP_test","primeRace","23","1","716",NA
481,"2","3","AMP_test","primeRace","23","1","572",NA
481,"2","4","AMP_test","primeNeutral","18","0","667",NA
481,"2","5","AMP_test","primeRace","23","1","992",NA
481,"2","6","AMP_test","primeNeutral","18","0","591",NA
481,"2","7","AMP_test","primeRace","23","1","493",NA
481,"2","8","AMP_test","primeNeutral","18","0","581",NA
481,"2","9","AMP_test","primeNeutral","23","1","505",NA
481,"2","10","AMP_test","primeRace","23","1","642",NA
481,"2","11","AMP_test","primeRace","23","1","599",NA
481,"2","12","AMP_test","primeRace","18","0","773",NA
481,"2","13","AMP_test","primeRace","18","0","558",NA
481,"2","14","AMP_test","primeNeutral","23","1","459",NA
481,"2","15","AMP_test","primeRace","23","1","615",NA
481,"2","16","AMP_test","primeNeutral","23","1","566",NA
481,"2","17","AMP_test","primeNeutral","18","0","591",NA
481,"2","18","AMP_test","primeRace","18","0","634",NA
481,"2","19","AMP_test","primeNeutral","23","1","376",NA
481,"2","20","AMP_test","primeRace","23","1","445",NA
481,"2","21","AMP_test","primeRace","18","0","523",NA
481,"2","22","AMP_test","primeRace","18","0","738",NA
481,"2","23","AMP_test","primeRace","18","0","681",NA
481,"2","24","AMP_test","primeRace","23","1","400",NA
481,"2","25","AMP_test","primeNeutral","18","0","697",NA
481,"2","26","AMP_test","primeRace","23","1","389",NA
481,"2","27","AMP_test","primeRace","23","1","577",NA
481,"2","28","AMP_test","primeRace","23","1","501",NA
481,"2","29","AMP_test","primeNeutral","23","1","839",NA
481,"2","30","AMP_test","primeNeutral","23","1","766",NA
481,"2","31","AMP_test","primeRace","23","1","548",NA
481,"2","32","AMP_test","primeRace","18","0","676",NA
481,"2","33","AMP_test","primeNeutral","23","1","469",NA
481,"2","34","AMP_test","primeNeutral","23","1","510",NA
481,"2","35","AMP_test","primeNeutral","18","0","600",NA
481,"2","36","AMP_test","primeRace","23","1","412",NA
481,"2","37","AMP_test","primeNeutral","23","1","728",NA
481,"2","38","AMP_test","primeRace","23","1","542",NA
481,"2","39","AMP_test","primeNeutral","23","1","831",NA
481,"2","40","AMP_test","primeNeutral","23","1","535",NA
481,"2","41","AMP_test","primeRace","23","1","714",NA
481,"2","42","AMP_test","primeRace","18","0","534",NA
481,"2","43","AMP_test","primeNeutral","18","0","683",NA
481,"2","44","AMP_test","primeNeutral","18","0","638",NA
481,"2","45","AMP_test","primeRace","23","1","536",NA
481,"2","46","AMP_test","primeRace","23","1","478",NA
481,"2","47","AMP_test","primeNeutral","23","1","507",NA
481,"2","48","AMP_test","primeNeutral","23","1","544",NA
481,"2","49","AMP_test","primeNeutral","18","0","696",NA
481,"2","50","AMP_test","primeNeutral","23","1","680",NA
481,"2","51","AMP_test","primeRace","23","1","770",NA
481,"2","52","AMP_test","primeRace","23","1","520",NA
481,"2","53","AMP_test","primeNeutral","18","0","558",NA
481,"2","54","AMP_test","primeRace","23","1","535",NA
481,"2","55","AMP_test","primeRace","23","1","468",NA
481,"2","56","AMP_test","primeNeutral","18","0","597",NA
481,"2","57","AMP_test","primeRace","18","0","581",NA
481,"2","58","AMP_test","primeNeutral","18","0","510",NA
481,"2","59","AMP_test","primeRace","23","1","445",NA
481,"2","60","AMP_test","primeNeutral","18","0","548",NA
481,"2","61","AMP_test","primeRace","18","0","901",NA
481,"2","62","AMP_test","primeNeutral","23","1","558",NA
481,"2","63","AMP_test","primeNeutral","23","1","544",NA
481,"2","64","AMP_test","primeRace","18","0","472",NA
481,"2","65","AMP_test","primeRace","23","1","561",NA
481,"2","66","AMP_test","primeRace","23","1","1159",NA
481,"2","67","AMP_test","primeNeutral","23","1","419",NA
481,"2","68","AMP_test","primeNeutral","23","1","906",NA
481,"2","69","AMP_test","primeNeutral","23","1","386",NA
481,"2","70","AMP_test","primeNeutral","23","1","353",NA
481,"2","71","AMP_test","primeRace","23","1","665",NA
481,"2","72","AMP_test","primeNeutral","18","0","305",NA
481,"2","73","AMP_test","primeRace","18","0","627",NA
481,"2","74","AMP_test","primeNeutral","18","0","522",NA
481,"2","75","AMP_test","primeNeutral","18","0","481",NA
481,"2","76","AMP_test","primeRace","23","1","475",NA
481,"2","77","AMP_test","primeNeutral","23","1","434",NA
481,"2","78","AMP_test","primeNeutral","18","0","551",NA
481,"2","79","AMP_test","primeNeutral","23","1","487",NA
481,"2","80","AMP_test","primeNeutral","18","0","495",NA
481,"2","81","AMP_test","primeNeutral","18","0","544",NA
481,"2","82","AMP_test","primeNeutral","23","1","372",NA
481,"2","83","AMP_test","primeNeutral","23","1","776",NA
481,"2","84","AMP_test","primeRace","18","0","792",NA
481,"2","85","AMP_test","primeRace","23","1","499",NA
481,"2","86","AMP_test","primeNeutral","18","0","788",NA
481,"2","87","AMP_test","primeNeutral","23","1","535",NA
481,"2","88","AMP_test","primeRace","23","1","653",NA
481,"2","89","AMP_test","primeRace","23","1","499",NA
481,"2","90","AMP_test","primeRace","23","1","537",NA
481,"2","91","AMP_test","primeRace","18","0","910",NA
481,"2","92","AMP_test","primeNeutral","23","1","411",NA
481,"2","93","AMP_test","primeRace","23","1","492",NA
481,"2","94","AMP_test","primeNeutral","18","0","585",NA
481,"2","95","AMP_test","primeRace","18","0","638",NA
481,"2","96","AMP_test","primeNeutral","23","1","506",NA
481,"2","97","AMP_test","primeRace","23","1","667",NA
481,"2","98","AMP_test","primeRace","23","1","431",NA
481,"2","99","AMP_test","primeNeutral","23","1","476",NA
481,"2","100","AMP_test","primeRace","23","1","541",NA
481,"2","101","AMP_test","primeNeutral","18","0","643",NA
481,"1","1","demographics","age","22","1","5962",NA
481,"1","2","demographics","gender","Male","1","5277",NA
481,"1","2","targetcompatiblepractice","targetAleft","18","1","2347",NA
481,"1","3","targetcompatiblepractice","targetBright","23","1","829",NA
481,"1","4","targetcompatiblepractice","targetBright","23","0","2601",NA
481,"1","5","targetcompatiblepractice","targetAleft","18","1","755",NA
481,"1","6","targetcompatiblepractice","targetBright","23","1","575",NA
481,"1","7","targetcompatiblepractice","targetAleft","18","1","622",NA
481,"1","8","targetcompatiblepractice","targetAleft","18","1","786",NA
481,"1","9","targetcompatiblepractice","targetAleft","18","1","573",NA
481,"1","10","targetcompatiblepractice","targetAleft","18","1","576",NA
481,"1","11","targetcompatiblepractice","targetBright","23","1","565",NA
481,"1","12","targetcompatiblepractice","targetBright","23","1","726",NA
481,"1","13","targetcompatiblepractice","targetAleft","18","1","574",NA
481,"1","14","targetcompatiblepractice","targetAleft","18","1","608",NA
481,"1","15","targetcompatiblepractice","targetBright","23","1","572",NA
481,"1","16","targetcompatiblepractice","targetAleft","18","1","525",NA
481,"1","17","targetcompatiblepractice","targetBright","23","1","558",NA
481,"1","18","targetcompatiblepractice","targetBright","23","1","849",NA
481,"1","19","targetcompatiblepractice","targetBright","23","1","586",NA
481,"1","20","targetcompatiblepractice","targetBright","23","1","969",NA
481,"1","21","targetcompatiblepractice","targetAleft","18","1","672",NA
481,"2","2","attributepractice","attributeA","18","1","1317",NA
481,"2","3","attributepractice","attributeB","23","1","709",NA
481,"2","4","attributepractice","attributeB","23","1","1152",NA
481,"2","5","attributepractice","attributeB","23","1","631",NA
481,"2","6","attributepractice","attributeB","23","1","595",NA
481,"2","7","attributepractice","attributeA","18","1","636",NA
481,"2","8","attributepractice","attributeA","18","1","653",NA
481,"2","9","attributepractice","attributeB","23","1","608",NA
481,"2","10","attributepractice","attributeB","23","1","983",NA
481,"2","11","attributepractice","attributeB","23","1","807",NA
481,"2","12","attributepractice","attributeB","23","1","797",NA
481,"2","13","attributepractice","attributeA","18","1","804",NA
481,"2","14","attributepractice","attributeA","18","1","655",NA
481,"2","15","attributepractice","attributeB","23","1","599",NA
481,"2","16","attributepractice","attributeA","18","1","1170",NA
481,"2","17","attributepractice","attributeA","18","1","693",NA
481,"2","18","attributepractice","attributeB","23","1","585",NA
481,"2","19","attributepractice","attributeA","18","1","743",NA
481,"2","20","attributepractice","attributeA","18","1","595",NA
481,"2","21","attributepractice","attributeA","18","1","632",NA
481,"3","2","compatibletest1","attributeA","18","1","1316",NA
481,"3","3","compatibletest1","targetAleft","18","1","949",NA
481,"3","4","compatibletest1","attributeA","18","1","845",NA
481,"3","5","compatibletest1","targetAleft","18","1","1840",NA
481,"3","6","compatibletest1","attributeB","23","1","725",NA
481,"3","7","compatibletest1","targetAleft","18","1","629",NA
481,"3","8","compatibletest1","attributeA","18","1","828",NA
481,"3","9","compatibletest1","targetBright","23","1","702",NA
481,"3","10","compatibletest1","attributeA","18","1","773",NA
481,"3","11","compatibletest1","targetBright","23","1","1072",NA
481,"3","12","compatibletest1","attributeB","23","1","1137",NA
481,"3","13","compatibletest1","targetAleft","18","1","612",NA
481,"3","14","compatibletest1","attributeB","23","1","954",NA
481,"3","15","compatibletest1","targetAleft","18","1","593",NA
481,"3","16","compatibletest1","attributeA","18","1","761",NA
481,"3","17","compatibletest1","targetBright","23","1","656",NA
481,"3","18","compatibletest1","attributeB","23","1","901",NA
481,"3","19","compatibletest1","targetBright","23","1","683",NA
481,"3","20","compatibletest1","attributeB","23","1","674",NA
481,"3","21","compatibletest1","targetBright","23","1","507",NA
481,"5","1","compatibletest2","attributeA","18","1","1455",NA
481,"5","2","compatibletest2","targetAleft","18","1","639",NA
481,"5","3","compatibletest2","attributeB","23","1","1112",NA
481,"5","4","compatibletest2","targetBright","23","1","527",NA
481,"5","5","compatibletest2","attributeB","23","1","952",NA
481,"5","6","compatibletest2","targetBright","23","1","546",NA
481,"5","7","compatibletest2","attributeB","23","1","649",NA
481,"5","8","compatibletest2","targetBright","23","1","489",NA
481,"5","9","compatibletest2","attributeB","23","1","475",NA
481,"5","10","compatibletest2","targetBright","23","1","364",NA
481,"5","11","compatibletest2","attributeA","18","0","869",NA
481,"5","12","compatibletest2","targetAleft","18","1","792",NA
481,"5","13","compatibletest2","attributeB","23","1","588",NA
481,"5","14","compatibletest2","targetAleft","18","1","609",NA
481,"5","15","compatibletest2","attributeA","18","1","605",NA
481,"5","16","compatibletest2","targetBright","23","1","555",NA
481,"5","17","compatibletest2","attributeA","18","1","515",NA
481,"5","18","compatibletest2","targetAleft","18","1","860",NA
481,"5","19","compatibletest2","attributeA","18","1","580",NA
481,"5","20","compatibletest2","targetBright","23","1","549",NA
481,"5","21","compatibletest2","attributeA","18","1","605",NA
481,"5","22","compatibletest2","targetAleft","18","1","741",NA
481,"5","23","compatibletest2","attributeA","18","1","593",NA
481,"5","24","compatibletest2","targetBright","23","1","580",NA
481,"5","25","compatibletest2","attributeB","23","1","907",NA
481,"5","26","compatibletest2","targetAleft","18","1","563",NA
481,"5","27","compatibletest2","attributeB","23","1","734",NA
481,"5","28","compatibletest2","targetAleft","18","1","826",NA
481,"5","29","compatibletest2","attributeB","23","1","1181",NA
481,"5","30","compatibletest2","targetBright","23","1","599",NA
481,"5","31","compatibletest2","attributeA","18","1","530",NA
481,"5","32","compatibletest2","targetBright","23","0","1581",NA
481,"5","33","compatibletest2","attributeA","18","1","637",NA
481,"5","34","compatibletest2","targetBright","23","1","564",NA
481,"5","35","compatibletest2","attributeA","18","1","725",NA
481,"5","36","compatibletest2","targetAleft","18","0","924",NA
481,"5","37","compatibletest2","attributeB","23","1","604",NA
481,"5","38","compatibletest2","targetAleft","18","1","535",NA
481,"5","39","compatibletest2","attributeB","23","1","587",NA
481,"5","40","compatibletest2","targetAleft","18","1","549",NA
481,"6","2","targetincompatiblepractice","targetBleft","18","1","2132",NA
481,"6","3","targetincompatiblepractice","targetBleft","18","1","702",NA
481,"6","4","targetincompatiblepractice","targetBleft","18","1","1188",NA
481,"6","5","targetincompatiblepractice","targetBleft","18","1","785",NA
481,"6","6","targetincompatiblepractice","targetAright","23","1","481",NA
481,"6","7","targetincompatiblepractice","targetAright","23","0","946",NA
481,"6","8","targetincompatiblepractice","targetAright","23","1","576",NA
481,"6","9","targetincompatiblepractice","targetAright","23","1","534",NA
481,"6","10","targetincompatiblepractice","targetAright","23","1","439",NA
481,"6","11","targetincompatiblepractice","targetAright","23","1","571",NA
481,"6","12","targetincompatiblepractice","targetAright","23","1","430",NA
481,"6","13","targetincompatiblepractice","targetBleft","18","1","458",NA
481,"6","14","targetincompatiblepractice","targetBleft","18","1","507",NA
481,"6","15","targetincompatiblepractice","targetBleft","18","1","673",NA
481,"6","16","targetincompatiblepractice","targetBleft","18","1","602",NA
481,"6","17","targetincompatiblepractice","targetAright","23","1","622",NA
481,"6","18","targetincompatiblepractice","targetBleft","18","1","486",NA
481,"6","19","targetincompatiblepractice","targetAright","23","1","500",NA
481,"6","20","targetincompatiblepractice","targetBleft","18","1","515",NA
481,"6","21","targetincompatiblepractice","targetAright","23","1","482",NA
481,"7","2","incompatibletest1","attributeA","18","1","1225",NA
481,"7","3","incompatibletest1","targetAright","23","1","1661",NA
481,"7","4","incompatibletest1","attributeA","18","1","1899",NA
481,"7","5","incompatibletest1","targetAright","23","1","1100",NA
481,"7","6","incompatibletest1","attributeB","23","1","1072",NA
481,"7","7","incompatibletest1","targetBleft","18","1","1051",NA
481,"7","8","incompatibletest1","attributeB","23","0","1253",NA
481,"7","9","incompatibletest1","targetAright","23","1","1824",NA
481,"7","10","incompatibletest1","attributeA","18","1","1008",NA
481,"7","11","incompatibletest1","targetAright","23","1","1024",NA
481,"7","12","incompatibletest1","attributeB","23","0","2226",NA
481,"7","13","incompatibletest1","targetAright","23","1","892",NA
481,"7","14","incompatibletest1","attributeB","23","0","1542",NA
481,"7","15","incompatibletest1","targetBleft","18","1","1277",NA
481,"7","16","incompatibletest1","attributeA","18","0","1223",NA
481,"7","17","incompatibletest1","targetBleft","18","1","1048",NA
481,"7","18","incompatibletest1","attributeB","23","1","1384",NA
481,"7","19","incompatibletest1","targetBleft","18","1","961",NA
481,"7","20","incompatibletest1","attributeA","18","1","1127",NA
481,"7","21","incompatibletest1","targetBleft","18","1","735",NA
481,"9","1","incompatibletest2","attributeA","18","1","1053",NA
481,"9","2","incompatibletest2","targetBleft","18","1","1003",NA
481,"9","3","incompatibletest2","attributeA","18","1","678",NA
481,"9","4","incompatibletest2","targetAright","23","1","631",NA
481,"9","5","incompatibletest2","attributeB","23","1","676",NA
481,"9","6","incompatibletest2","targetBleft","18","1","684",NA
481,"9","7","incompatibletest2","attributeB","23","1","1613",NA
481,"9","8","incompatibletest2","targetBleft","18","1","748",NA
481,"9","9","incompatibletest2","attributeA","18","1","875",NA
481,"9","10","incompatibletest2","targetAright","23","1","749",NA
481,"9","11","incompatibletest2","attributeB","23","1","1230",NA
481,"9","12","incompatibletest2","targetBleft","18","1","759",NA
481,"9","13","incompatibletest2","attributeB","23","1","2152",NA
481,"9","14","incompatibletest2","targetAright","23","1","1564",NA
481,"9","15","incompatibletest2","attributeB","23","1","685",NA
481,"9","16","incompatibletest2","targetAright","23","1","441",NA
481,"9","17","incompatibletest2","attributeA","18","0","1013",NA
481,"9","18","incompatibletest2","targetAright","23","1","757",NA
481,"9","19","incompatibletest2","attributeA","18","1","973",NA
481,"9","20","incompatibletest2","targetBleft","18","1","496",NA
481,"9","21","incompatibletest2","attributeB","23","1","1274",NA
481,"9","22","incompatibletest2","targetAright","23","1","317",NA
481,"9","23","incompatibletest2","attributeB","23","1","1001",NA
481,"9","24","incompatibletest2","targetBleft","18","1","622",NA
481,"9","25","incompatibletest2","attributeA","18","1","1066",NA
481,"9","26","incompatibletest2","targetAright","23","1","711",NA
481,"9","27","incompatibletest2","attributeA","18","1","1102",NA
481,"9","28","incompatibletest2","targetBleft","18","1","527",NA
481,"9","29","incompatibletest2","attributeB","23","1","1006",NA
481,"9","30","incompatibletest2","targetBleft","18","1","556",NA
481,"9","31","incompatibletest2","attributeB","23","1","817",NA
481,"9","32","incompatibletest2","targetAright","23","1","690",NA
481,"9","33","incompatibletest2","attributeB","23","0","1700",NA
481,"9","34","incompatibletest2","targetBleft","18","1","848",NA
481,"9","35","incompatibletest2","attributeA","18","1","1146",NA
481,"9","36","incompatibletest2","targetAright","23","1","482",NA
481,"9","37","incompatibletest2","attributeA","18","1","1207",NA
481,"9","38","incompatibletest2","targetAright","23","1","632",NA
481,"9","39","incompatibletest2","attributeA","18","1","917",NA
481,"9","40","incompatibletest2","targetBleft","18","1","545",NA
481,"1","1","racism_scale","likert_scale","4",NA,NA,NA
481,"1","2","racism_scale","likert_scale","2",NA,NA,NA
481,"1","3","racism_scale","likert_scale","3",NA,NA,NA
481,"1","4","racism_scale","likert_scale","3",NA,NA,NA
481,"1","5","racism_scale","likert_scale","2",NA,NA,NA
481,"1","6","racism_scale","likert_scale","5",NA,NA,NA
481,"1","7","racism_scale","likert_scale","3",NA,NA,NA
481,"1","1","ratings","images","5",NA,NA,NA
481,"1","2","ratings","images","5",NA,NA,NA
481,"1","3","ratings","images","5",NA,NA,NA
481,"1","4","ratings","images","5",NA,NA,NA
481,"1","5","ratings","images","5",NA,NA,NA
481,"1","6","ratings","images","5",NA,NA,NA
480,NA,NA,NA,NA,NA,NA,NA,"Only black faces"
480,"1","4","AMP_practice","primeRacepractice","23","0","1734",NA
480,"1","5","AMP_practice","primeNeutralpractice","23","1","731",NA
480,"1","6","AMP_practice","primeRacepractice","23","0","1202",NA
480,"1","7","AMP_practice","primeNeutralpractice","18","1","834",NA
480,"1","8","AMP_practice","primeNeutralpractice","23","1","1164",NA
480,"1","9","AMP_practice","primeNeutralpractice","18","1","625",NA
480,"1","10","AMP_practice","primeNeutralpractice","18","1","750",NA
480,"1","11","AMP_practice","primeRacepractice","23","0","544",NA
480,"1","12","AMP_practice","primeRacepractice","18","1","603",NA
480,"1","13","AMP_practice","primeRacepractice","23","0","788",NA
480,"2","2","AMP_test","primeRace","23","1","722",NA
480,"2","3","AMP_test","primeRace","23","1","1131",NA
480,"2","4","AMP_test","primeNeutral","18","0","937",NA
480,"2","5","AMP_test","primeNeutral","18","0","670",NA
480,"2","6","AMP_test","primeRace","23","1","707",NA
480,"2","7","AMP_test","primeRace","23","1","658",NA
480,"2","8","AMP_test","primeRace","18","0","745",NA
480,"2","9","AMP_test","primeNeutral","23","1","770",NA
480,"2","10","AMP_test","primeNeutral","18","0","798",NA
480,"2","11","AMP_test","primeNeutral","18","0","629",NA
480,"2","12","AMP_test","primeRace","23","1","773",NA
480,"2","13","AMP_test","primeNeutral","18","0","764",NA
480,"2","14","AMP_test","primeNeutral","23","1","661",NA
480,"2","15","AMP_test","primeRace","23","1","847",NA
480,"2","16","AMP_test","primeNeutral","18","0","645",NA
480,"2","17","AMP_test","primeNeutral","23","1","766",NA
480,"2","18","AMP_test","primeRace","18","0","760",NA
480,"2","19","AMP_test","primeNeutral","18","0","819",NA
480,"2","20","AMP_test","primeNeutral","23","1","560",NA
480,"2","21","AMP_test","primeRace","23","1","919",NA
480,"2","22","AMP_test","primeRace","18","0","553",NA
480,"2","23","AMP_test","primeNeutral","23","1","588",NA
480,"2","24","AMP_test","primeNeutral","23","1","835",NA
480,"2","25","AMP_test","primeRace","18","0","832",NA
480,"2","26","AMP_test","primeRace","23","1","676",NA
480,"2","27","AMP_test","primeRace","23","1","788",NA
480,"2","28","AMP_test","primeNeutral","23","1","695",NA
480,"2","29","AMP_test","primeRace","23","1","939",NA
480,"2","30","AMP_test","primeNeutral","18","0","678",NA
480,"2","31","AMP_test","primeRace","23","1","725",NA
480,"2","32","AMP_test","primeRace","23","1","777",NA
480,"2","33","AMP_test","primeRace","18","0","829",NA
480,"2","34","AMP_test","primeNeutral","18","0","739",NA
480,"2","35","AMP_test","primeRace","23","1","699",NA
480,"2","36","AMP_test","primeRace","23","1","706",NA
480,"2","37","AMP_test","primeRace","18","0","574",NA
480,"2","38","AMP_test","primeNeutral","18","0","481",NA
480,"2","39","AMP_test","primeNeutral","23","1","1395",NA
480,"2","40","AMP_test","primeNeutral","18","0","1313",NA
480,"2","41","AMP_test","primeNeutral","23","1","694",NA
480,"2","42","AMP_test","primeRace","18","0","524",NA
480,"2","43","AMP_test","primeNeutral","18","0","789",NA
480,"2","44","AMP_test","primeRace","23","1","1028",NA
480,"2","45","AMP_test","primeNeutral","23","1","1034",NA
480,"2","46","AMP_test","primeRace","23","1","1708",NA
480,"2","47","AMP_test","primeNeutral","18","0","729",NA
480,"2","48","AMP_test","primeNeutral","18","0","1146",NA
480,"2","49","AMP_test","primeNeutral","23","1","443",NA
480,"2","50","AMP_test","primeRace","23","1","954",NA
480,"2","51","AMP_test","primeNeutral","18","0","799",NA
480,"2","52","AMP_test","primeNeutral","23","1","920",NA
480,"2","53","AMP_test","primeRace","18","0","714",NA
480,"2","54","AMP_test","primeRace","18","0","1016",NA
480,"2","55","AMP_test","primeRace","23","1","1038",NA
480,"2","56","AMP_test","primeRace","23","1","1042",NA
480,"2","57","AMP_test","primeRace","18","0","954",NA
480,"2","58","AMP_test","primeRace","18","0","633",NA
480,"2","59","AMP_test","primeRace","23","1","661",NA
480,"2","60","AMP_test","primeNeutral","18","0","960",NA
480,"2","61","AMP_test","primeNeutral","23","1","1181",NA
480,"2","62","AMP_test","primeNeutral","23","1","881",NA
480,"2","63","AMP_test","primeRace","18","0","929",NA
480,"2","64","AMP_test","primeNeutral","18","0","897",NA
480,"2","65","AMP_test","primeRace","23","1","674",NA
480,"2","66","AMP_test","primeRace","23","1","778",NA
480,"2","67","AMP_test","primeNeutral","18","0","694",NA
480,"2","68","AMP_test","primeRace","23","1","809",NA
480,"2","69","AMP_test","primeNeutral","18","0","846",NA
480,"2","70","AMP_test","primeRace","23","1","824",NA
480,"2","71","AMP_test","primeRace","18","0","1051",NA
480,"2","72","AMP_test","primeNeutral","23","1","753",NA
480,"2","73","AMP_test","primeNeutral","18","0","699",NA
480,"2","74","AMP_test","primeRace","18","0","724",NA
480,"2","75","AMP_test","primeNeutral","23","1","528",NA
480,"2","76","AMP_test","primeNeutral","23","1","659",NA
480,"2","77","AMP_test","primeNeutral","18","0","703",NA
480,"2","78","AMP_test","primeRace","18","0","831",NA
480,"2","79","AMP_test","primeNeutral","23","1","870",NA
480,"2","80","AMP_test","primeRace","18","0","687",NA
480,"2","81","AMP_test","primeRace","23","1","746",NA
480,"2","82","AMP_test","primeNeutral","18","0","703",NA
480,"2","83","AMP_test","primeNeutral","23","1","600",NA
480,"2","84","AMP_test","primeNeutral","23","1","791",NA
480,"2","85","AMP_test","primeRace","18","0","751",NA
480,"2","86","AMP_test","primeNeutral","18","0","854",NA
480,"2","87","AMP_test","primeNeutral","23","1","685",NA
480,"2","88","AMP_test","primeRace","23","1","752",NA
480,"2","89","AMP_test","primeNeutral","18","0","601",NA
480,"2","90","AMP_test","primeRace","18","0","720",NA
480,"2","91","AMP_test","primeNeutral","18","0","880",NA
480,"2","92","AMP_test","primeRace","23","1","547",NA
480,"2","93","AMP_test","primeRace","18","0","870",NA
480,"2","94","AMP_test","primeNeutral","23","1","863",NA
480,"2","95","AMP_test","primeRace","18","0","419",NA
480,"2","96","AMP_test","primeNeutral","18","0","298",NA
480,"2","97","AMP_test","primeRace","18","0","442",NA
480,"2","98","AMP_test","primeNeutral","18","0","284",NA
480,"2","99","AMP_test","primeNeutral","23","1","582",NA
480,"2","100","AMP_test","primeRace","18","0","462",NA
480,"2","101","AMP_test","primeRace","23","1","457",NA
480,"1","1","demographics","age","28","1","3403",NA
480,"1","2","demographics","gender","male","1","3457",NA
480,"1","1","demographics","age","28","1","10673",NA
480,"1","2","demographics","gender","male","1","3125",NA
480,"1","2","targetincompatiblepractice","targetBleft","18","1","6660",NA
480,"1","3","targetincompatiblepractice","targetAright","23","1","667",NA
480,"1","4","targetincompatiblepractice","targetAright","23","1","555",NA
480,"1","5","targetincompatiblepractice","targetAright","23","1","489",NA
480,"1","6","targetincompatiblepractice","targetBleft","18","1","454",NA
480,"1","7","targetincompatiblepractice","targetBleft","18","1","425",NA
480,"1","8","targetincompatiblepractice","targetBleft","18","1","493",NA
480,"1","9","targetincompatiblepractice","targetAright","23","1","558",NA
480,"1","10","targetincompatiblepractice","targetBleft","18","1","539",NA
480,"1","11","targetincompatiblepractice","targetBleft","18","1","556",NA
480,"1","12","targetincompatiblepractice","targetBleft","18","1","446",NA
480,"1","13","targetincompatiblepractice","targetAright","23","1","502",NA
480,"1","14","targetincompatiblepractice","targetAright","23","1","524",NA
480,"1","15","targetincompatiblepractice","targetBleft","18","1","475",NA
480,"1","16","targetincompatiblepractice","targetAright","23","1","483",NA
480,"1","17","targetincompatiblepractice","targetAright","23","1","480",NA
480,"1","18","targetincompatiblepractice","targetAright","23","1","537",NA
480,"1","19","targetincompatiblepractice","targetBleft","18","1","522",NA
480,"1","20","targetincompatiblepractice","targetAright","23","1","437",NA
480,"1","21","targetincompatiblepractice","targetBleft","18","1","514",NA
480,"2","2","attributepractice","attributeB","23","1","1590",NA
480,"2","3","attributepractice","attributeB","23","1","615",NA
480,"2","4","attributepractice","attributeA","18","1","754",NA
480,"2","5","attributepractice","attributeB","23","1","608",NA
480,"2","6","attributepractice","attributeA","18","1","657",NA
480,"2","7","attributepractice","attributeA","18","1","613",NA
480,"2","8","attributepractice","attributeB","23","1","537",NA
480,"2","9","attributepractice","attributeB","23","1","491",NA
480,"2","10","attributepractice","attributeA","18","1","603",NA
480,"2","11","attributepractice","attributeB","23","1","504",NA
480,"2","12","attributepractice","attributeA","18","1","567",NA
480,"2","13","attributepractice","attributeA","18","1","575",NA
480,"2","14","attributepractice","attributeB","23","1","655",NA
480,"2","15","attributepractice","attributeA","18","1","590",NA
480,"2","16","attributepractice","attributeA","18","1","622",NA
480,"2","17","attributepractice","attributeB","23","1","600",NA
480,"2","18","attributepractice","attributeB","23","1","647",NA
480,"2","19","attributepractice","attributeB","23","1","647",NA
480,"2","20","attributepractice","attributeA","18","0","1040",NA
480,"2","21","attributepractice","attributeA","18","1","554",NA
480,"3","2","incompatibletest1","attributeB","23","1","1580",NA
480,"3","3","incompatibletest1","targetBleft","18","1","800",NA
480,"3","4","incompatibletest1","attributeB","23","1","697",NA
480,"3","5","incompatibletest1","targetBleft","18","1","739",NA
480,"3","6","incompatibletest1","attributeA","18","1","765",NA
480,"3","7","incompatibletest1","targetAright","23","1","976",NA
480,"3","8","incompatibletest1","attributeB","23","1","722",NA
480,"3","9","incompatibletest1","targetBleft","18","1","869",NA
480,"3","10","incompatibletest1","attributeA","18","1","597",NA
480,"3","11","incompatibletest1","targetAright","23","1","853",NA
480,"3","12","incompatibletest1","attributeA","18","1","690",NA
480,"3","13","incompatibletest1","targetBleft","18","1","3173",NA
480,"3","14","incompatibletest1","attributeA","18","1","885",NA
480,"3","15","incompatibletest1","targetBleft","18","1","583",NA
480,"3","16","incompatibletest1","attributeA","18","1","604",NA
480,"3","17","incompatibletest1","targetAright","23","1","852",NA
480,"3","18","incompatibletest1","attributeB","23","1","870",NA
480,"3","19","incompatibletest1","targetAright","23","1","852",NA
480,"3","20","incompatibletest1","attributeB","23","1","807",NA
480,"3","21","incompatibletest1","targetAright","23","1","844",NA
480,"5","1","incompatibletest2","attributeA","18","1","1273",NA
480,"5","2","incompatibletest2","targetBleft","18","1","688",NA
480,"5","3","incompatibletest2","attributeB","23","1","948",NA
480,"5","4","incompatibletest2","targetBleft","18","1","1134",NA
480,"5","5","incompatibletest2","attributeA","18","1","2230",NA
480,"5","6","incompatibletest2","targetAright","23","1","847",NA
480,"5","7","incompatibletest2","attributeA","18","1","696",NA
480,"5","8","incompatibletest2","targetBleft","18","1","734",NA
480,"5","9","incompatibletest2","attributeA","18","1","651",NA
480,"5","10","incompatibletest2","targetBleft","18","1","502",NA
480,"5","11","incompatibletest2","attributeB","23","1","672",NA
480,"5","12","incompatibletest2","targetBleft","18","1","751",NA
480,"5","13","incompatibletest2","attributeB","23","1","553",NA
480,"5","14","incompatibletest2","targetAright","23","1","1115",NA
480,"5","15","incompatibletest2","attributeA","18","1","634",NA
480,"5","16","incompatibletest2","targetBleft","18","1","568",NA
480,"5","17","incompatibletest2","attributeA","18","1","510",NA
480,"5","18","incompatibletest2","targetAright","23","0","1055",NA
480,"5","19","incompatibletest2","attributeB","23","0","948",NA
480,"5","20","incompatibletest2","targetBleft","18","0","1162",NA
480,"5","21","incompatibletest2","attributeB","23","1","1057",NA
480,"5","22","incompatibletest2","targetAright","23","1","952",NA
480,"5","23","incompatibletest2","attributeB","23","1","823",NA
480,"5","24","incompatibletest2","targetAright","23","1","674",NA
480,"5","25","incompatibletest2","attributeB","23","1","545",NA
480,"5","26","incompatibletest2","targetBleft","18","1","651",NA
480,"5","27","incompatibletest2","attributeB","23","1","549",NA
480,"5","28","incompatibletest2","targetBleft","18","1","575",NA
480,"5","29","incompatibletest2","attributeA","18","1","673",NA
480,"5","30","incompatibletest2","targetAright","23","1","667",NA
480,"5","31","incompatibletest2","attributeA","18","1","554",NA
480,"5","32","incompatibletest2","targetAright","23","1","526",NA
480,"5","33","incompatibletest2","attributeA","18","1","466",NA
480,"5","34","incompatibletest2","targetBleft","18","0","1249",NA
480,"5","35","incompatibletest2","attributeB","23","1","618",NA
480,"5","36","incompatibletest2","targetAright","23","1","724",NA
480,"5","37","incompatibletest2","attributeA","18","1","701",NA
480,"5","38","incompatibletest2","targetAright","23","1","719",NA
480,"5","39","incompatibletest2","attributeB","23","1","723",NA
480,"5","40","incompatibletest2","targetAright","23","1","603",NA
480,"6","2","targetcompatiblepractice","targetAleft","18","1","1215",NA
480,"6","3","targetcompatiblepractice","targetAleft","18","1","392",NA
480,"6","4","targetcompatiblepractice","targetBright","23","1","457",NA
480,"6","5","targetcompatiblepractice","targetAleft","18","1","544",NA
480,"6","6","targetcompatiblepractice","targetBright","23","0","1062",NA
480,"6","7","targetcompatiblepractice","targetAleft","18","1","737",NA
480,"6","8","targetcompatiblepractice","targetBright","23","1","515",NA
480,"6","9","targetcompatiblepractice","targetBright","23","1","623",NA
480,"6","10","targetcompatiblepractice","targetAleft","18","1","590",NA
480,"6","11","targetcompatiblepractice","targetAleft","18","1","627",NA
480,"6","12","targetcompatiblepractice","targetBright","23","1","824",NA
480,"6","13","targetcompatiblepractice","targetBright","23","1","972",NA
480,"6","14","targetcompatiblepractice","targetAleft","18","1","700",NA
480,"6","15","targetcompatiblepractice","targetAleft","18","1","448",NA
480,"6","16","targetcompatiblepractice","targetAleft","18","1","517",NA
480,"6","17","targetcompatiblepractice","targetAleft","18","1","473",NA
480,"6","18","targetcompatiblepractice","targetBright","23","1","492",NA
480,"6","19","targetcompatiblepractice","targetBright","23","1","511",NA
480,"6","20","targetcompatiblepractice","targetBright","23","1","468",NA
480,"6","21","targetcompatiblepractice","targetBright","23","1","590",NA
480,"7","2","compatibletest1","attributeB","23","1","1255",NA
480,"7","3","compatibletest1","targetBright","23","1","912",NA
480,"7","4","compatibletest1","attributeA","18","1","1000",NA
480,"7","5","compatibletest1","targetBright","23","1","600",NA
480,"7","6","compatibletest1","attributeB","23","1","575",NA
480,"7","7","compatibletest1","targetAleft","18","1","776",NA
480,"7","8","compatibletest1","attributeA","18","1","593",NA
480,"7","9","compatibletest1","targetAleft","18","1","677",NA
480,"7","10","compatibletest1","attributeA","18","1","553",NA
480,"7","11","compatibletest1","targetAleft","18","1","536",NA
480,"7","12","compatibletest1","attributeB","23","1","562",NA
480,"7","13","compatibletest1","targetBright","23","1","488",NA
480,"7","14","compatibletest1","attributeB","23","1","544",NA
480,"7","15","compatibletest1","targetBright","23","1","500",NA
480,"7","16","compatibletest1","attributeA","18","0","675",NA
480,"7","17","compatibletest1","targetBright","23","1","953",NA
480,"7","18","compatibletest1","attributeA","18","1","518",NA
480,"7","19","compatibletest1","targetAleft","18","1","684",NA
480,"7","20","compatibletest1","attributeB","23","1","609",NA
480,"7","21","compatibletest1","targetAleft","18","1","1239",NA
480,"9","1","compatibletest2","attributeB","23","1","892",NA
480,"9","2","compatibletest2","targetBright","23","1","518",NA
480,"9","3","compatibletest2","attributeA","18","1","578",NA
480,"9","4","compatibletest2","targetAleft","18","1","568",NA
480,"9","5","compatibletest2","attributeB","23","1","564",NA
480,"9","6","compatibletest2","targetAleft","18","1","473",NA
480,"9","7","compatibletest2","attributeB","23","1","459",NA
480,"9","8","compatibletest2","targetAleft","18","1","478",NA
480,"9","9","compatibletest2","attributeA","18","1","650",NA
480,"9","10","compatibletest2","targetBright","23","0","927",NA
480,"9","11","compatibletest2","attributeB","23","1","520",NA
480,"9","12","compatibletest2","targetAleft","18","1","530",NA
480,"9","13","compatibletest2","attributeB","23","1","504",NA
480,"9","14","compatibletest2","targetAleft","18","1","610",NA
480,"9","15","compatibletest2","attributeA","18","1","581",NA
480,"9","16","compatibletest2","targetBright","23","1","556",NA
480,"9","17","compatibletest2","attributeA","18","1","587",NA
480,"9","18","compatibletest2","targetBright","23","1","557",NA
480,"9","19","compatibletest2","attributeA","18","1","574",NA
480,"9","20","compatibletest2","targetBright","23","1","479",NA
480,"9","21","compatibletest2","attributeB","23","1","600",NA
480,"9","22","compatibletest2","targetBright","23","1","564",NA
480,"9","23","compatibletest2","attributeB","23","1","465",NA
480,"9","24","compatibletest2","targetBright","23","1","491",NA
480,"9","25","compatibletest2","attributeA","18","1","521",NA
480,"9","26","compatibletest2","targetAleft","18","1","716",NA
480,"9","27","compatibletest2","attributeA","18","1","565",NA
480,"9","28","compatibletest2","targetBright","23","1","461",NA
480,"9","29","compatibletest2","attributeA","18","1","505",NA
480,"9","30","compatibletest2","targetBright","23","1","600",NA
480,"9","31","compatibletest2","attributeB","23","1","462",NA
480,"9","32","compatibletest2","targetAleft","18","1","590",NA
480,"9","33","compatibletest2","attributeB","23","0","841",NA
480,"9","34","compatibletest2","targetBright","23","1","671",NA
480,"9","35","compatibletest2","attributeA","18","1","486",NA
480,"9","36","compatibletest2","targetAleft","18","1","1126",NA
480,"9","37","compatibletest2","attributeA","18","1","701",NA
480,"9","38","compatibletest2","targetAleft","18","1","501",NA
480,"9","39","compatibletest2","attributeB","23","1","619",NA
480,"9","40","compatibletest2","targetAleft","18","1","608",NA
480,"1","1","racism_scale","likert_scale","3",NA,NA,NA
480,"1","2","racism_scale","likert_scale","2",NA,NA,NA
480,"1","3","racism_scale","likert_scale","3",NA,NA,NA
480,"1","4","racism_scale","likert_scale","3",NA,NA,NA
480,"1","5","racism_scale","likert_scale","1",NA,NA,NA
480,"1","6","racism_scale","likert_scale","2",NA,NA,NA
480,"1","7","racism_scale","likert_scale","5",NA,NA,NA
480,"1","1","ratings","images","4",NA,NA,NA
480,"1","2","ratings","images","3",NA,NA,NA
480,"1","3","ratings","images","2",NA,NA,NA
480,"1","4","ratings","images","6",NA,NA,NA
480,"1","5","ratings","images","4",NA,NA,NA
480,"1","6","ratings","images","5",NA,NA,NA
478,NA,NA,NA,NA,NA,NA,NA,"Only black faces"
478,"1","4","AMP_practice","primeNeutralpractice","18","1","2914",NA
478,"1","5","AMP_practice","primeRacepractice","23","0","1375",NA
478,"1","6","AMP_practice","primeNeutralpractice","23","1","959",NA
478,"1","7","AMP_practice","primeNeutralpractice","23","1","972",NA
478,"1","8","AMP_practice","primeRacepractice","23","0","1085",NA
478,"1","9","AMP_practice","primeRacepractice","23","0","1140",NA
478,"1","10","AMP_practice","primeRacepractice","18","1","776",NA
478,"1","11","AMP_practice","primeNeutralpractice","23","1","1014",NA
478,"1","12","AMP_practice","primeNeutralpractice","23","1","961",NA
478,"1","13","AMP_practice","primeRacepractice","18","1","711",NA
478,"2","2","AMP_test","primeRace","18","0","1489",NA
478,"2","3","AMP_test","primeRace","23","1","961",NA
478,"2","4","AMP_test","primeRace","23","1","995",NA
478,"2","5","AMP_test","primeRace","18","0","815",NA
478,"2","6","AMP_test","primeNeutral","18","0","1368",NA
478,"2","7","AMP_test","primeRace","23","1","1026",NA
478,"2","8","AMP_test","primeNeutral","18","0","832",NA
478,"2","9","AMP_test","primeRace","23","1","783",NA
478,"2","10","AMP_test","primeRace","18","0","1255",NA
478,"2","11","AMP_test","primeRace","18","0","792",NA
478,"2","12","AMP_test","primeRace","23","1","626",NA
478,"2","13","AMP_test","primeRace","23","1","877",NA
478,"2","14","AMP_test","primeRace","23","1","836",NA
478,"2","15","AMP_test","primeRace","18","0","691",NA
478,"2","16","AMP_test","primeRace","23","1","1033",NA
478,"2","17","AMP_test","primeRace","18","0","951",NA
478,"2","18","AMP_test","primeRace","18","0","856",NA
478,"2","19","AMP_test","primeNeutral","23","1","633",NA
478,"2","20","AMP_test","primeNeutral","23","1","843",NA
478,"2","21","AMP_test","primeNeutral","23","1","789",NA
478,"2","22","AMP_test","primeRace","18","0","599",NA
478,"2","23","AMP_test","primeNeutral","23","1","792",NA
478,"2","24","AMP_test","primeNeutral","23","1","968",NA
478,"2","25","AMP_test","primeNeutral","18","0","566",NA
478,"2","26","AMP_test","primeNeutral","23","1","813",NA
478,"2","27","AMP_test","primeNeutral","18","0","860",NA
478,"2","28","AMP_test","primeNeutral","18","0","617",NA
478,"2","29","AMP_test","primeNeutral","23","1","678",NA
478,"2","30","AMP_test","primeRace","18","0","890",NA
478,"2","31","AMP_test","primeNeutral","23","1","851",NA
478,"2","32","AMP_test","primeNeutral","18","0","1528",NA
478,"2","33","AMP_test","primeRace","23","1","1128",NA
478,"2","34","AMP_test","primeNeutral","18","0","677",NA
478,"2","35","AMP_test","primeRace","23","1","684",NA
478,"2","36","AMP_test","primeNeutral","23","1","892",NA
478,"2","37","AMP_test","primeNeutral","18","0","579",NA
478,"2","38","AMP_test","primeNeutral","23","1","680",NA
478,"2","39","AMP_test","primeRace","23","1","1309",NA
478,"2","40","AMP_test","primeRace","18","0","910",NA
478,"2","41","AMP_test","primeNeutral","23","1","1538",NA
478,"2","42","AMP_test","primeNeutral","23","1","870",NA
478,"2","43","AMP_test","primeRace","23","1","1118",NA
478,"2","44","AMP_test","primeRace","18","0","530",NA
478,"2","45","AMP_test","primeNeutral","18","0","571",NA
478,"2","46","AMP_test","primeRace","23","1","1486",NA
478,"2","47","AMP_test","primeNeutral","18","0","893",NA
478,"2","48","AMP_test","primeRace","23","1","607",NA
478,"2","49","AMP_test","primeNeutral","23","1","953",NA
478,"2","50","AMP_test","primeRace","18","0","705",NA
478,"2","51","AMP_test","primeNeutral","18","0","1445",NA
478,"2","52","AMP_test","primeRace","18","0","839",NA
478,"2","53","AMP_test","primeRace","18","0","751",NA
478,"2","54","AMP_test","primeNeutral","23","1","375",NA
478,"2","55","AMP_test","primeRace","23","1","728",NA
478,"2","56","AMP_test","primeNeutral","23","1","1084",NA
478,"2","57","AMP_test","primeNeutral","23","1","840",NA
478,"2","58","AMP_test","primeRace","18","0","993",NA
478,"2","59","AMP_test","primeNeutral","18","0","890",NA
478,"2","60","AMP_test","primeNeutral","23","1","475",NA
478,"2","61","AMP_test","primeNeutral","18","0","614",NA
478,"2","62","AMP_test","primeRace","23","1","1214",NA
478,"2","63","AMP_test","primeRace","18","0","806",NA
478,"2","64","AMP_test","primeNeutral","23","1","777",NA
478,"2","65","AMP_test","primeRace","23","1","1139",NA
478,"2","66","AMP_test","primeRace","18","0","826",NA
478,"2","67","AMP_test","primeNeutral","18","0","1182",NA
478,"2","68","AMP_test","primeRace","23","1","675",NA
478,"2","69","AMP_test","primeRace","23","1","746",NA
478,"2","70","AMP_test","primeNeutral","23","1","733",NA
478,"2","71","AMP_test","primeNeutral","23","1","808",NA
478,"2","72","AMP_test","primeNeutral","18","0","567",NA
478,"2","73","AMP_test","primeRace","23","1","815",NA
478,"2","74","AMP_test","primeRace","18","0","521",NA
478,"2","75","AMP_test","primeNeutral","18","0","669",NA
478,"2","76","AMP_test","primeNeutral","23","1","542",NA
478,"2","77","AMP_test","primeNeutral","18","0","1100",NA
478,"2","78","AMP_test","primeRace","23","1","644",NA
478,"2","79","AMP_test","primeRace","18","0","768",NA
478,"2","80","AMP_test","primeRace","23","1","680",NA
478,"2","81","AMP_test","primeNeutral","23","1","780",NA
478,"2","82","AMP_test","primeRace","18","0","708",NA
478,"2","83","AMP_test","primeNeutral","18","0","831",NA
478,"2","84","AMP_test","primeNeutral","18","0","1479",NA
478,"2","85","AMP_test","primeNeutral","23","1","749",NA
478,"2","86","AMP_test","primeRace","23","1","1128",NA
478,"2","87","AMP_test","primeRace","18","0","931",NA
478,"2","88","AMP_test","primeNeutral","23","1","617",NA
478,"2","89","AMP_test","primeNeutral","18","0","553",NA
478,"2","90","AMP_test","primeNeutral","23","1","991",NA
478,"2","91","AMP_test","primeNeutral","18","0","633",NA
478,"2","92","AMP_test","primeNeutral","23","1","703",NA
478,"2","93","AMP_test","primeNeutral","23","1","627",NA
478,"2","94","AMP_test","primeRace","18","0","612",NA
478,"2","95","AMP_test","primeNeutral","18","0","570",NA
478,"2","96","AMP_test","primeRace","18","0","703",NA
478,"2","97","AMP_test","primeRace","18","0","1044",NA
478,"2","98","AMP_test","primeRace","23","1","941",NA
478,"2","99","AMP_test","primeRace","18","0","822",NA
478,"2","100","AMP_test","primeNeutral","18","0","767",NA
478,"2","101","AMP_test","primeRace","23","1","456",NA
478,"1","1","demographics","age","52","1","8303",NA
478,"1","2","demographics","gender","male","1","6337",NA
478,"1","2","targetincompatiblepractice","targetAright","23","1","1219",NA
478,"1","3","targetincompatiblepractice","targetAright","23","1","695",NA
478,"1","4","targetincompatiblepractice","targetBleft","18","1","591",NA
478,"1","5","targetincompatiblepractice","targetBleft","18","1","533",NA
478,"1","6","targetincompatiblepractice","targetAright","23","1","1071",NA
478,"1","7","targetincompatiblepractice","targetBleft","18","1","686",NA
478,"1","8","targetincompatiblepractice","targetAright","23","1","955",NA
478,"1","9","targetincompatiblepractice","targetBleft","18","1","579",NA
478,"1","10","targetincompatiblepractice","targetAright","23","1","751",NA
478,"1","11","targetincompatiblepractice","targetBleft","18","1","631",NA
478,"1","12","targetincompatiblepractice","targetBleft","18","1","753",NA
478,"1","13","targetincompatiblepractice","targetAright","23","1","815",NA
478,"1","14","targetincompatiblepractice","targetAright","23","1","627",NA
478,"1","15","targetincompatiblepractice","targetBleft","18","1","662",NA
478,"1","16","targetincompatiblepractice","targetAright","23","1","879",NA
478,"1","17","targetincompatiblepractice","targetBleft","18","1","605",NA
478,"1","18","targetincompatiblepractice","targetAright","23","1","644",NA
478,"1","19","targetincompatiblepractice","targetAright","23","1","585",NA
478,"1","20","targetincompatiblepractice","targetBleft","18","1","629",NA
478,"1","21","targetincompatiblepractice","targetBleft","18","1","509",NA
478,"2","2","attributepractice","attributeB","23","1","1153",NA
478,"2","3","attributepractice","attributeA","18","1","691",NA
478,"2","4","attributepractice","attributeA","18","1","1051",NA
478,"2","5","attributepractice","attributeB","23","1","813",NA
478,"2","6","attributepractice","attributeB","23","1","703",NA
478,"2","7","attributepractice","attributeA","18","1","742",NA
478,"2","8","attributepractice","attributeA","18","1","795",NA
478,"2","9","attributepractice","attributeB","23","1","745",NA
478,"2","10","attributepractice","attributeA","18","1","764",NA
478,"2","11","attributepractice","attributeB","23","1","746",NA
478,"2","12","attributepractice","attributeA","18","1","681",NA
478,"2","13","attributepractice","attributeA","18","1","658",NA
478,"2","14","attributepractice","attributeB","23","1","589",NA
478,"2","15","attributepractice","attributeB","23","1","605",NA
478,"2","16","attributepractice","attributeB","23","1","587",NA
478,"2","17","attributepractice","attributeB","23","1","551",NA
478,"2","18","attributepractice","attributeA","18","1","597",NA
478,"2","19","attributepractice","attributeA","18","1","638",NA
478,"2","20","attributepractice","attributeB","23","1","623",NA
478,"2","21","attributepractice","attributeA","18","1","697",NA
478,"3","2","incompatibletest1","attributeB","23","1","1459",NA
478,"3","3","incompatibletest1","targetBleft","18","1","1192",NA
478,"3","4","incompatibletest1","attributeA","18","1","1297",NA
478,"3","5","incompatibletest1","targetAright","23","1","1504",NA
478,"3","6","incompatibletest1","attributeB","23","1","1239",NA
478,"3","7","incompatibletest1","targetBleft","18","1","1120",NA
478,"3","8","incompatibletest1","attributeB","23","1","768",NA
478,"3","9","incompatibletest1","targetAright","23","0","6590",NA
478,"3","10","incompatibletest1","attributeA","18","1","1900",NA
478,"3","11","incompatibletest1","targetAright","23","1","1230",NA
478,"3","12","incompatibletest1","attributeA","18","1","1182",NA
478,"3","13","incompatibletest1","targetBleft","18","1","1290",NA
478,"3","14","incompatibletest1","attributeA","18","1","1148",NA
478,"3","15","incompatibletest1","targetBleft","18","1","1501",NA
478,"3","16","incompatibletest1","attributeA","18","1","979",NA
478,"3","17","incompatibletest1","targetBleft","18","1","765",NA
478,"3","18","incompatibletest1","attributeB","23","1","861",NA
478,"3","19","incompatibletest1","targetAright","23","1","1042",NA
478,"3","20","incompatibletest1","attributeB","23","1","1445",NA
478,"3","21","incompatibletest1","targetAright","23","1","1117",NA
478,"5","1","incompatibletest2","attributeA","18","1","1382",NA
478,"5","2","incompatibletest2","targetBleft","18","1","659",NA
478,"5","3","incompatibletest2","attributeA","18","1","642",NA
478,"5","4","incompatibletest2","targetBleft","18","1","567",NA
478,"5","5","incompatibletest2","attributeA","18","1","758",NA
478,"5","6","incompatibletest2","targetAright","23","1","847",NA
478,"5","7","incompatibletest2","attributeA","18","1","910",NA
478,"5","8","incompatibletest2","targetAright","23","1","924",NA
478,"5","9","incompatibletest2","attributeB","23","1","783",NA
478,"5","10","incompatibletest2","targetAright","23","1","1391",NA
478,"5","11","incompatibletest2","attributeA","18","1","789",NA
478,"5","12","incompatibletest2","targetAright","23","1","1363",NA
478,"5","13","incompatibletest2","attributeB","23","1","827",NA
478,"5","14","incompatibletest2","targetBleft","18","1","692",NA
478,"5","15","incompatibletest2","attributeB","23","1","855",NA
478,"5","16","incompatibletest2","targetAright","23","1","855",NA
478,"5","17","incompatibletest2","attributeB","23","1","1051",NA
478,"5","18","incompatibletest2","targetAright","23","1","766",NA
478,"5","19","incompatibletest2","attributeA","18","1","800",NA
478,"5","20","incompatibletest2","targetAright","23","1","710",NA
478,"5","21","incompatibletest2","attributeA","18","1","861",NA
478,"5","22","incompatibletest2","targetBleft","18","1","565",NA
478,"5","23","incompatibletest2","attributeA","18","1","706",NA
478,"5","24","incompatibletest2","targetAright","23","1","785",NA
478,"5","25","incompatibletest2","attributeA","18","1","796",NA
478,"5","26","incompatibletest2","targetBleft","18","1","708",NA
478,"5","27","incompatibletest2","attributeB","23","1","666",NA
478,"5","28","incompatibletest2","targetBleft","18","1","485",NA
478,"5","29","incompatibletest2","attributeB","23","1","717",NA
478,"5","30","incompatibletest2","targetAright","23","1","714",NA
478,"5","31","incompatibletest2","attributeB","23","1","759",NA
478,"5","32","incompatibletest2","targetAright","23","1","1070",NA
478,"5","33","incompatibletest2","attributeB","23","1","695",NA
478,"5","34","incompatibletest2","targetBleft","18","1","811",NA
478,"5","35","incompatibletest2","attributeB","23","1","631",NA
478,"5","36","incompatibletest2","targetBleft","18","1","657",NA
478,"5","37","incompatibletest2","attributeA","18","1","611",NA
478,"5","38","incompatibletest2","targetBleft","18","1","595",NA
478,"5","39","incompatibletest2","attributeB","23","1","607",NA
478,"5","40","incompatibletest2","targetBleft","18","1","646",NA
478,"6","2","targetcompatiblepractice","targetAleft","18","0","3326",NA
478,"6","3","targetcompatiblepractice","targetAleft","18","1","840",NA
478,"6","4","targetcompatiblepractice","targetAleft","18","1","851",NA
478,"6","5","targetcompatiblepractice","targetAleft","18","1","633",NA
478,"6","6","targetcompatiblepractice","targetBright","23","1","600",NA
478,"6","7","targetcompatiblepractice","targetAleft","18","1","752",NA
478,"6","8","targetcompatiblepractice","targetAleft","18","1","723",NA
478,"6","9","targetcompatiblepractice","targetAleft","18","1","631",NA
478,"6","10","targetcompatiblepractice","targetAleft","18","1","601",NA
478,"6","11","targetcompatiblepractice","targetAleft","18","1","580",NA
478,"6","12","targetcompatiblepractice","targetBright","23","1","476",NA
478,"6","13","targetcompatiblepractice","targetBright","23","1","433",NA
478,"6","14","targetcompatiblepractice","targetBright","23","1","447",NA
478,"6","15","targetcompatiblepractice","targetBright","23","1","401",NA
478,"6","16","targetcompatiblepractice","targetBright","23","1","424",NA
478,"6","17","targetcompatiblepractice","targetBright","23","1","439",NA
478,"6","18","targetcompatiblepractice","targetBright","23","1","434",NA
478,"6","19","targetcompatiblepractice","targetBright","23","1","400",NA
478,"6","20","targetcompatiblepractice","targetAleft","18","1","618",NA
478,"6","21","targetcompatiblepractice","targetBright","23","1","649",NA
478,"7","2","compatibletest1","attributeA","18","1","842",NA
478,"7","3","compatibletest1","targetBright","23","1","819",NA
478,"7","4","compatibletest1","attributeB","23","1","756",NA
478,"7","5","compatibletest1","targetBright","23","1","658",NA
478,"7","6","compatibletest1","attributeA","18","1","697",NA
478,"7","7","compatibletest1","targetAleft","18","1","546",NA
478,"7","8","compatibletest1","attributeA","18","1","730",NA
478,"7","9","compatibletest1","targetBright","23","1","563",NA
478,"7","10","compatibletest1","attributeB","23","1","655",NA
478,"7","11","compatibletest1","targetBright","23","1","595",NA
478,"7","12","compatibletest1","attributeA","18","1","723",NA
478,"7","13","compatibletest1","targetAleft","18","1","684",NA
478,"7","14","compatibletest1","attributeB","23","1","623",NA
478,"7","15","compatibletest1","targetBright","23","1","989",NA
478,"7","16","compatibletest1","attributeB","23","1","664",NA
478,"7","17","compatibletest1","targetAleft","18","1","646",NA
478,"7","18","compatibletest1","attributeB","23","1","693",NA
478,"7","19","compatibletest1","targetAleft","18","1","593",NA
478,"7","20","compatibletest1","attributeA","18","1","619",NA
478,"7","21","compatibletest1","targetAleft","18","1","545",NA
478,"9","1","compatibletest2","attributeA","18","1","768",NA
478,"9","2","compatibletest2","targetAleft","18","1","471",NA
478,"9","3","compatibletest2","attributeB","23","1","619",NA
478,"9","4","compatibletest2","targetAleft","18","1","528",NA
478,"9","5","compatibletest2","attributeA","18","1","714",NA
478,"9","6","compatibletest2","targetBright","23","1","682",NA
478,"9","7","compatibletest2","attributeA","18","1","631",NA
478,"9","8","compatibletest2","targetAleft","18","1","671",NA
478,"9","9","compatibletest2","attributeB","23","1","633",NA
478,"9","10","compatibletest2","targetAleft","18","1","581",NA
478,"9","11","compatibletest2","attributeA","18","1","611",NA
478,"9","12","compatibletest2","targetAleft","18","1","526",NA
478,"9","13","compatibletest2","attributeA","18","1","626",NA
478,"9","14","compatibletest2","targetBright","23","1","706",NA
478,"9","15","compatibletest2","attributeB","23","1","721",NA
478,"9","16","compatibletest2","targetBright","23","1","458",NA
478,"9","17","compatibletest2","attributeB","23","1","578",NA
478,"9","18","compatibletest2","targetAleft","18","1","684",NA
478,"9","19","compatibletest2","attributeB","23","1","716",NA
478,"9","20","compatibletest2","targetAleft","18","1","585",NA
478,"9","21","compatibletest2","attributeB","23","1","918",NA
478,"9","22","compatibletest2","targetBright","23","1","823",NA
478,"9","23","compatibletest2","attributeA","18","1","675",NA
478,"9","24","compatibletest2","targetAleft","18","1","673",NA
478,"9","25","compatibletest2","attributeB","23","1","660",NA
478,"9","26","compatibletest2","targetBright","23","1","783",NA
478,"9","27","compatibletest2","attributeA","18","1","700",NA
478,"9","28","compatibletest2","targetBright","23","1","582",NA
478,"9","29","compatibletest2","attributeA","18","1","693",NA
478,"9","30","compatibletest2","targetBright","23","1","602",NA
478,"9","31","compatibletest2","attributeB","23","1","755",NA
478,"9","32","compatibletest2","targetAleft","18","1","627",NA
478,"9","33","compatibletest2","attributeB","23","1","664",NA
478,"9","34","compatibletest2","targetAleft","18","1","721",NA
478,"9","35","compatibletest2","attributeA","18","1","627",NA
478,"9","36","compatibletest2","targetBright","23","1","641",NA
478,"9","37","compatibletest2","attributeA","18","1","622",NA
478,"9","38","compatibletest2","targetBright","23","1","639",NA
478,"9","39","compatibletest2","attributeB","23","1","619",NA
478,"9","40","compatibletest2","targetBright","23","1","533",NA
478,"1","1","racism_scale","likert_scale","2",NA,NA,NA
478,"1","2","racism_scale","likert_scale","3",NA,NA,NA
478,"1","3","racism_scale","likert_scale","3",NA,NA,NA
478,"1","4","racism_scale","likert_scale","2",NA,NA,NA
478,"1","5","racism_scale","likert_scale","2",NA,NA,NA
478,"1","6","racism_scale","likert_scale","4",NA,NA,NA
478,"1","7","racism_scale","likert_scale","2",NA,NA,NA
478,"1","1","ratings","images","4",NA,NA,NA
478,"1","2","ratings","images","4",NA,NA,NA
478,"1","3","ratings","images","4",NA,NA,NA
478,"1","4","ratings","images","4",NA,NA,NA
478,"1","5","ratings","images","4",NA,NA,NA
478,"1","6","ratings","images","4",NA,NA,NA
475,NA,NA,NA,NA,NA,NA,NA,"Both white and black faces"
475,"1","4","AMP_practice","primeNeutralpractice","23","1","1680",NA
475,"1","5","AMP_practice","primeNeutralpractice","23","1","1598",NA
475,"1","6","AMP_practice","primeNeutralpractice","23","1","919",NA
475,"1","7","AMP_practice","primeRacepractice","23","0","836",NA
475,"1","8","AMP_practice","primeRacepractice","23","0","714",NA
475,"1","9","AMP_practice","primeRacepractice","23","0","530",NA
475,"1","10","AMP_practice","primeRacepractice","23","0","545",NA
475,"1","11","AMP_practice","primeNeutralpractice","23","1","647",NA
475,"1","12","AMP_practice","primeRacepractice","23","0","550",NA
475,"1","13","AMP_practice","primeNeutralpractice","23","1","411",NA
475,"2","2","AMP_test","primeRace","23","1","911",NA
475,"2","3","AMP_test","primeRace","18","0","959",NA
475,"2","4","AMP_test","primeRace","23","1","592",NA
475,"2","5","AMP_test","primeRace","23","1","505",NA
475,"2","6","AMP_test","primeRace","23","1","724",NA
475,"2","7","AMP_test","primeNeutral","23","1","771",NA
475,"2","8","AMP_test","primeRace","18","0","626",NA
475,"2","9","AMP_test","primeRace","23","1","560",NA
475,"2","10","AMP_test","primeRace","23","1","411",NA
475,"2","11","AMP_test","primeNeutral","23","1","423",NA
475,"2","12","AMP_test","primeRace","23","1","438",NA
475,"2","13","AMP_test","primeNeutral","18","0","501",NA
475,"2","14","AMP_test","primeRace","23","1","352",NA
475,"2","15","AMP_test","primeRace","23","1","349",NA
475,"2","16","AMP_test","primeRace","23","1","360",NA
475,"2","17","AMP_test","primeRace","23","1","316",NA
475,"2","18","AMP_test","primeNeutral","23","1","253",NA
475,"2","19","AMP_test","primeRace","23","1","135",NA
475,"2","20","AMP_test","primeNeutral","23","1","2183",NA
475,"2","21","AMP_test","primeNeutral","23","1","435",NA
475,"2","22","AMP_test","primeNeutral","18","0","443",NA
475,"2","23","AMP_test","primeNeutral","23","1","495",NA
475,"2","24","AMP_test","primeRace","23","1","313",NA
475,"2","25","AMP_test","primeNeutral","23","1","227",NA
475,"2","26","AMP_test","primeRace","23","1","262",NA
475,"2","27","AMP_test","primeNeutral","23","1","308",NA
475,"2","28","AMP_test","primeRace","23","1","357",NA
475,"2","29","AMP_test","primeNeutral","23","1","264",NA
475,"2","30","AMP_test","primeNeutral","23","1","306",NA
475,"2","31","AMP_test","primeNeutral","23","1","303",NA
475,"2","32","AMP_test","primeNeutral","18","0","291",NA
475,"2","33","AMP_test","primeNeutral","18","0","549",NA
475,"2","34","AMP_test","primeNeutral","23","1","274",NA
475,"2","35","AMP_test","primeNeutral","23","1","235",NA
475,"2","36","AMP_test","primeNeutral","23","1","272",NA
475,"2","37","AMP_test","primeNeutral","23","1","241",NA
475,"2","38","AMP_test","primeNeutral","23","1","306",NA
475,"2","39","AMP_test","primeRace","23","1","283",NA
475,"2","40","AMP_test","primeNeutral","23","1","322",NA
475,"2","41","AMP_test","primeRace","18","0","344",NA
475,"2","42","AMP_test","primeNeutral","23","1","225",NA
475,"2","43","AMP_test","primeRace","23","1","269",NA
475,"2","44","AMP_test","primeRace","23","1","251",NA
475,"2","45","AMP_test","primeRace","23","1","259",NA
475,"2","46","AMP_test","primeNeutral","23","1","290",NA
475,"2","47","AMP_test","primeRace","23","1","304",NA
475,"2","48","AMP_test","primeNeutral","23","1","204",NA
475,"2","49","AMP_test","primeRace","23","1","260",NA
475,"2","50","AMP_test","primeNeutral","23","1","260",NA
475,"2","51","AMP_test","primeNeutral","23","1","250",NA
475,"2","52","AMP_test","primeRace","23","1","272",NA
475,"2","53","AMP_test","primeNeutral","23","1","260",NA
475,"2","54","AMP_test","primeRace","23","1","263",NA
475,"2","55","AMP_test","primeNeutral","23","1","88",NA
475,"2","56","AMP_test","primeRace","23","1","170",NA
475,"2","57","AMP_test","primeRace","23","1","156",NA
475,"2","58","AMP_test","primeRace","23","1","105",NA
475,"2","59","AMP_test","primeNeutral","23","1","345",NA
475,"2","60","AMP_test","primeRace","18","0","368",NA
475,"2","61","AMP_test","primeRace","23","1","989",NA
475,"2","62","AMP_test","primeNeutral","23","1","399",NA
475,"2","63","AMP_test","primeNeutral","23","1","413",NA
475,"2","64","AMP_test","primeRace","23","1","329",NA
475,"2","65","AMP_test","primeNeutral","18","0","518",NA
475,"2","66","AMP_test","primeNeutral","23","1","302",NA
475,"2","67","AMP_test","primeNeutral","18","0","451",NA
475,"2","68","AMP_test","primeNeutral","23","1","244",NA
475,"2","69","AMP_test","primeNeutral","23","1","194",NA
475,"2","70","AMP_test","primeNeutral","23","1","231",NA
475,"2","71","AMP_test","primeRace","23","1","266",NA
475,"2","72","AMP_test","primeRace","23","1","180",NA
475,"2","73","AMP_test","primeNeutral","23","1","178",NA
475,"2","74","AMP_test","primeNeutral","23","1","40",NA
475,"2","75","AMP_test","primeNeutral","23","1","329",NA
475,"2","76","AMP_test","primeNeutral","18","0","357",NA
475,"2","77","AMP_test","primeRace","23","1","192",NA
475,"2","78","AMP_test","primeRace","23","1","293",NA
475,"2","79","AMP_test","primeRace","23","1","363",NA
475,"2","80","AMP_test","primeRace","23","1","294",NA
475,"2","81","AMP_test","primeNeutral","23","1","268",NA
475,"2","82","AMP_test","primeRace","23","1","257",NA
475,"2","83","AMP_test","primeRace","23","1","271",NA
475,"2","84","AMP_test","primeRace","23","1","273",NA
475,"2","85","AMP_test","primeRace","23","1","320",NA
475,"2","86","AMP_test","primeNeutral","23","1","370",NA
475,"2","87","AMP_test","primeNeutral","23","1","283",NA
475,"2","88","AMP_test","primeRace","23","1","350",NA
475,"2","89","AMP_test","primeNeutral","23","1","240",NA
475,"2","90","AMP_test","primeRace","23","1","324",NA
475,"2","91","AMP_test","primeNeutral","23","1","314",NA
475,"2","92","AMP_test","primeRace","23","1","298",NA
475,"2","93","AMP_test","primeNeutral","23","1","310",NA
475,"2","94","AMP_test","primeRace","23","1","222",NA
475,"2","95","AMP_test","primeRace","23","1","232",NA
475,"2","96","AMP_test","primeRace","23","1","284",NA
475,"2","97","AMP_test","primeNeutral","23","1","243",NA
475,"2","98","AMP_test","primeNeutral","23","1","359",NA
475,"2","99","AMP_test","primeNeutral","23","1","233",NA
475,"2","100","AMP_test","primeRace","23","1","223",NA
475,"2","101","AMP_test","primeRace","23","1","221",NA
475,"1","1","demographics","age","31","1","6769",NA
475,"1","2","demographics","gender","male","1","4582",NA
475,"1","2","targetincompatiblepractice","targetBleft","18","1","1627",NA
475,"1","3","targetincompatiblepractice","targetAright","23","1","704",NA
475,"1","4","targetincompatiblepractice","targetAright","23","1","652",NA
475,"1","5","targetincompatiblepractice","targetBleft","18","1","619",NA
475,"1","6","targetincompatiblepractice","targetBleft","18","1","638",NA
475,"1","7","targetincompatiblepractice","targetBleft","18","1","839",NA
475,"1","8","targetincompatiblepractice","targetBleft","18","1","640",NA
475,"1","9","targetincompatiblepractice","targetAright","23","1","586",NA
475,"1","10","targetincompatiblepractice","targetAright","23","1","792",NA
475,"1","11","targetincompatiblepractice","targetBleft","18","1","650",NA
475,"1","12","targetincompatiblepractice","targetAright","23","1","677",NA
475,"1","13","targetincompatiblepractice","targetAright","23","1","730",NA
475,"1","14","targetincompatiblepractice","targetBleft","18","1","628",NA
475,"1","15","targetincompatiblepractice","targetBleft","18","1","736",NA
475,"1","16","targetincompatiblepractice","targetBleft","18","1","634",NA
475,"1","17","targetincompatiblepractice","targetAright","23","1","903",NA
475,"1","18","targetincompatiblepractice","targetAright","23","1","1256",NA
475,"1","19","targetincompatiblepractice","targetBleft","18","1","707",NA
475,"1","20","targetincompatiblepractice","targetAright","23","1","774",NA
475,"1","21","targetincompatiblepractice","targetAright","23","1","647",NA
475,"2","2","attributepractice","attributeB","23","1","1206",NA
475,"2","3","attributepractice","attributeA","18","1","935",NA
475,"2","4","attributepractice","attributeB","23","1","658",NA
475,"2","5","attributepractice","attributeA","18","1","883",NA
475,"2","6","attributepractice","attributeB","23","1","598",NA
475,"2","7","attributepractice","attributeA","18","1","602",NA
475,"2","8","attributepractice","attributeA","18","1","857",NA
475,"2","9","attributepractice","attributeA","18","1","613",NA
475,"2","10","attributepractice","attributeB","23","1","715",NA
475,"2","11","attributepractice","attributeA","18","1","646",NA
475,"2","12","attributepractice","attributeB","23","1","601",NA
475,"2","13","attributepractice","attributeB","23","1","610",NA
475,"2","14","attributepractice","attributeB","23","1","621",NA
475,"2","15","attributepractice","attributeA","18","1","1044",NA
475,"2","16","attributepractice","attributeB","23","1","592",NA
475,"2","17","attributepractice","attributeB","23","1","592",NA
475,"2","18","attributepractice","attributeB","23","1","667",NA
475,"2","19","attributepractice","attributeA","18","1","561",NA
475,"2","20","attributepractice","attributeA","18","1","774",NA
475,"2","21","attributepractice","attributeA","18","0","1696",NA
475,"3","2","incompatibletest1","attributeB","23","1","989",NA
475,"3","3","incompatibletest1","targetBleft","18","1","5958",NA
475,"3","4","incompatibletest1","attributeA","18","1","2385",NA
475,"3","5","incompatibletest1","targetAright","23","1","4229",NA
475,"3","6","incompatibletest1","attributeB","23","1","1296",NA
475,"3","7","incompatibletest1","targetBleft","18","1","3023",NA
475,"3","8","incompatibletest1","attributeA","18","1","2562",NA
475,"3","9","incompatibletest1","targetAright","23","1","897",NA
475,"3","10","incompatibletest1","attributeB","23","1","1717",NA
475,"3","11","incompatibletest1","targetAright","23","1","714",NA
475,"3","12","incompatibletest1","attributeB","23","0","2829",NA
475,"3","13","incompatibletest1","targetBleft","18","1","3243",NA
475,"3","14","incompatibletest1","attributeA","18","1","2487",NA
475,"3","15","incompatibletest1","targetBleft","18","1","762",NA
475,"3","16","incompatibletest1","attributeA","18","1","1096",NA
475,"3","17","incompatibletest1","targetAright","23","1","727",NA
475,"3","18","incompatibletest1","attributeA","18","1","997",NA
475,"3","19","incompatibletest1","targetAright","23","1","860",NA
475,"3","20","incompatibletest1","attributeB","23","1","1146",NA
475,"3","21","incompatibletest1","targetBleft","18","1","710",NA
475,"5","1","incompatibletest2","attributeB","23","1","1392",NA
475,"5","2","incompatibletest2","targetAright","23","1","781",NA
475,"5","3","incompatibletest2","attributeA","18","1","814",NA
475,"5","4","incompatibletest2","targetBleft","18","1","638",NA
475,"5","5","incompatibletest2","attributeB","23","1","950",NA
475,"5","6","incompatibletest2","targetBleft","18","1","1404",NA
475,"5","7","incompatibletest2","attributeA","18","1","1278",NA
475,"5","8","incompatibletest2","targetAright","23","1","694",NA
475,"5","9","incompatibletest2","attributeA","18","1","675",NA
475,"5","10","incompatibletest2","targetAright","23","1","662",NA
475,"5","11","incompatibletest2","attributeA","18","1","705",NA
475,"5","12","incompatibletest2","targetBleft","18","1","687",NA
475,"5","13","incompatibletest2","attributeB","23","1","945",NA
475,"5","14","incompatibletest2","targetBleft","18","1","1041",NA
475,"5","15","incompatibletest2","attributeA","18","1","1143",NA
475,"5","16","incompatibletest2","targetBleft","18","1","661",NA
475,"5","17","incompatibletest2","attributeB","23","1","885",NA
475,"5","18","incompatibletest2","targetBleft","18","1","647",NA
475,"5","19","incompatibletest2","attributeB","23","1","894",NA
475,"5","20","incompatibletest2","targetAright","23","1","1147",NA
475,"5","21","incompatibletest2","attributeB","23","1","1296",NA
475,"5","22","incompatibletest2","targetAright","23","1","714",NA
475,"5","23","incompatibletest2","attributeB","23","1","646",NA
475,"5","24","incompatibletest2","targetBleft","18","1","652",NA
475,"5","25","incompatibletest2","attributeA","18","1","827",NA
475,"5","26","incompatibletest2","targetBleft","18","1","833",NA
475,"5","27","incompatibletest2","attributeB","23","1","1132",NA
475,"5","28","incompatibletest2","targetAright","23","1","857",NA
475,"5","29","incompatibletest2","attributeB","23","1","657",NA
475,"5","30","incompatibletest2","targetAright","23","1","1172",NA
475,"5","31","incompatibletest2","attributeA","18","1","646",NA
475,"5","32","incompatibletest2","targetBleft","18","1","738",NA
475,"5","33","incompatibletest2","attributeB","23","1","570",NA
475,"5","34","incompatibletest2","targetBleft","18","1","710",NA
475,"5","35","incompatibletest2","attributeA","18","1","720",NA
475,"5","36","incompatibletest2","targetAright","23","1","635",NA
475,"5","37","incompatibletest2","attributeA","18","1","747",NA
475,"5","38","incompatibletest2","targetAright","23","1","930",NA
475,"5","39","incompatibletest2","attributeA","18","1","874",NA
475,"5","40","incompatibletest2","targetAright","23","1","754",NA
475,"6","2","targetcompatiblepractice","targetBright","23","1","2211",NA
475,"6","3","targetcompatiblepractice","targetBright","23","1","1380",NA
475,"6","4","targetcompatiblepractice","targetBright","23","1","658",NA
475,"6","5","targetcompatiblepractice","targetAleft","18","1","601",NA
475,"6","6","targetcompatiblepractice","targetAleft","18","1","701",NA
475,"6","7","targetcompatiblepractice","targetAleft","18","1","578",NA
475,"6","8","targetcompatiblepractice","targetAleft","18","1","785",NA
475,"6","9","targetcompatiblepractice","targetBright","23","1","591",NA
475,"6","10","targetcompatiblepractice","targetBright","23","1","1000",NA
475,"6","11","targetcompatiblepractice","targetBright","23","1","704",NA
475,"6","12","targetcompatiblepractice","targetAleft","18","1","549",NA
475,"6","13","targetcompatiblepractice","targetBright","23","1","960",NA
475,"6","14","targetcompatiblepractice","targetAleft","18","1","800",NA
475,"6","15","targetcompatiblepractice","targetAleft","18","1","702",NA
475,"6","16","targetcompatiblepractice","targetAleft","18","1","709",NA
475,"6","17","targetcompatiblepractice","targetAleft","18","1","461",NA
475,"6","18","targetcompatiblepractice","targetAleft","18","1","617",NA
475,"6","19","targetcompatiblepractice","targetBright","23","1","546",NA
475,"6","20","targetcompatiblepractice","targetBright","23","1","473",NA
475,"6","21","targetcompatiblepractice","targetBright","23","1","540",NA
475,"7","2","compatibletest1","attributeA","18","1","1237",NA
475,"7","3","compatibletest1","targetBright","23","1","632",NA
475,"7","4","compatibletest1","attributeA","18","1","967",NA
475,"7","5","compatibletest1","targetAleft","18","1","1030",NA
475,"7","6","compatibletest1","attributeB","23","1","757",NA
475,"7","7","compatibletest1","targetBright","23","1","899",NA
475,"7","8","compatibletest1","attributeB","23","1","977",NA
475,"7","9","compatibletest1","targetBright","23","1","603",NA
475,"7","10","compatibletest1","attributeB","23","1","712",NA
475,"7","11","compatibletest1","targetAleft","18","1","608",NA
475,"7","12","compatibletest1","attributeB","23","1","821",NA
475,"7","13","compatibletest1","targetAleft","18","1","568",NA
475,"7","14","compatibletest1","attributeA","18","1","713",NA
475,"7","15","compatibletest1","targetBright","23","1","1169",NA
475,"7","16","compatibletest1","attributeA","18","1","909",NA
475,"7","17","compatibletest1","targetAleft","18","1","1138",NA
475,"7","18","compatibletest1","attributeB","23","1","623",NA
475,"7","19","compatibletest1","targetBright","23","0","1201",NA
475,"7","20","compatibletest1","attributeA","18","1","1073",NA
475,"7","21","compatibletest1","targetAleft","18","1","619",NA
475,"9","1","compatibletest2","attributeB","23","1","1226",NA
475,"9","2","compatibletest2","targetAleft","18","1","1160",NA
475,"9","3","compatibletest2","attributeB","23","1","593",NA
475,"9","4","compatibletest2","targetBright","23","0","1253",NA
475,"9","5","compatibletest2","attributeA","18","1","958",NA
475,"9","6","compatibletest2","targetAleft","18","1","746",NA
475,"9","7","compatibletest2","attributeA","18","1","1305",NA
475,"9","8","compatibletest2","targetAleft","18","1","724",NA
475,"9","9","compatibletest2","attributeA","18","1","984",NA
475,"9","10","compatibletest2","targetAleft","18","1","606",NA
475,"9","11","compatibletest2","attributeB","23","1","634",NA
475,"9","12","compatibletest2","targetAleft","18","1","669",NA
475,"9","13","compatibletest2","attributeB","23","1","905",NA
475,"9","14","compatibletest2","targetBright","23","1","746",NA
475,"9","15","compatibletest2","attributeA","18","1","1086",NA
475,"9","16","compatibletest2","targetAleft","18","1","618",NA
475,"9","17","compatibletest2","attributeA","18","1","889",NA
475,"9","18","compatibletest2","targetBright","23","1","681",NA
475,"9","19","compatibletest2","attributeA","18","1","721",NA
475,"9","20","compatibletest2","targetAleft","18","1","710",NA
475,"9","21","compatibletest2","attributeB","23","1","638",NA
475,"9","22","compatibletest2","targetAleft","18","1","636",NA
475,"9","23","compatibletest2","attributeB","23","1","643",NA
475,"9","24","compatibletest2","targetBright","23","1","637",NA
475,"9","25","compatibletest2","attributeB","23","1","601",NA
475,"9","26","compatibletest2","targetBright","23","1","631",NA
475,"9","27","compatibletest2","attributeB","23","1","648",NA
475,"9","28","compatibletest2","targetAleft","18","1","585",NA
475,"9","29","compatibletest2","attributeA","18","0","1308",NA
475,"9","30","compatibletest2","targetBright","23","1","841",NA
475,"9","31","compatibletest2","attributeA","18","1","704",NA
475,"9","32","compatibletest2","targetAleft","18","1","689",NA
475,"9","33","compatibletest2","attributeA","18","0","1427",NA
475,"9","34","compatibletest2","targetBright","23","1","1173",NA
475,"9","35","compatibletest2","attributeB","23","1","914",NA
475,"9","36","compatibletest2","targetBright","23","1","651",NA
475,"9","37","compatibletest2","attributeA","18","1","667",NA
475,"9","38","compatibletest2","targetBright","23","1","1987",NA
475,"9","39","compatibletest2","attributeB","23","1","1103",NA
475,"9","40","compatibletest2","targetBright","23","1","695",NA
475,"1","1","racism_scale","likert_scale","5",NA,NA,NA
475,"1","2","racism_scale","likert_scale","5",NA,NA,NA
475,"1","3","racism_scale","likert_scale","5",NA,NA,NA
475,"1","4","racism_scale","likert_scale","1",NA,NA,NA
475,"1","5","racism_scale","likert_scale","1",NA,NA,NA
475,"1","6","racism_scale","likert_scale","5",NA,NA,NA
475,"1","7","racism_scale","likert_scale","1",NA,NA,NA
475,"1","1","ratings","images","6",NA,NA,NA
475,"1","2","ratings","images","6",NA,NA,NA
475,"1","3","ratings","images","6",NA,NA,NA
475,"1","4","ratings","images","6",NA,NA,NA
475,"1","5","ratings","images","6",NA,NA,NA
475,"1","6","ratings","images","6",NA,NA,NA
459,NA,NA,NA,NA,NA,NA,NA,"Only black faces"
459,"1","4","AMP_practice","primeRacepractice","18","1","2771",NA
459,"1","5","AMP_practice","primeNeutralpractice","18","1","3567",NA
459,"1","6","AMP_practice","primeNeutralpractice","23","1","2317",NA
459,"1","7","AMP_practice","primeRacepractice","18","1","1831",NA
459,"1","8","AMP_practice","primeNeutralpractice","18","1","1285",NA
459,"1","9","AMP_practice","primeRacepractice","23","0","1154",NA
459,"1","10","AMP_practice","primeRacepractice","23","0","1736",NA
459,"1","11","AMP_practice","primeNeutralpractice","18","1","837",NA
459,"1","12","AMP_practice","primeRacepractice","23","0","613",NA
459,"1","13","AMP_practice","primeNeutralpractice","23","1","3532",NA
459,"2","2","AMP_test","primeRace","23","1","5085",NA
459,"2","3","AMP_test","primeNeutral","23","1","913",NA
459,"2","4","AMP_test","primeRace","23","1","1279",NA
459,"2","5","AMP_test","primeNeutral","23","1","547",NA
459,"2","6","AMP_test","primeRace","23","1","1629",NA
459,"2","7","AMP_test","primeRace","23","1","399",NA
459,"2","8","AMP_test","primeNeutral","18","0","1013",NA
459,"2","9","AMP_test","primeNeutral","23","1","374",NA
459,"2","10","AMP_test","primeNeutral","18","0","520",NA
459,"2","11","AMP_test","primeRace","23","1","369",NA
459,"2","12","AMP_test","primeNeutral","18","0","823",NA
459,"2","13","AMP_test","primeNeutral","23","1","321",NA
459,"2","14","AMP_test","primeNeutral","23","1","345",NA
459,"2","15","AMP_test","primeRace","23","1","462",NA
459,"2","16","AMP_test","primeRace","23","1","276",NA
459,"2","17","AMP_test","primeNeutral","18","0","695",NA
459,"2","18","AMP_test","primeRace","23","1","351",NA
459,"2","19","AMP_test","primeNeutral","18","0","358",NA
459,"2","20","AMP_test","primeNeutral","23","1","54",NA
459,"2","21","AMP_test","primeRace","23","1","323",NA
459,"2","22","AMP_test","primeNeutral","23","1","284",NA
459,"2","23","AMP_test","primeRace","18","0","165",NA
459,"2","24","AMP_test","primeNeutral","23","1","313",NA
459,"2","25","AMP_test","primeRace","23","1","253",NA
459,"2","26","AMP_test","primeRace","18","0","272",NA
459,"2","27","AMP_test","primeNeutral","23","1","378",NA
459,"2","28","AMP_test","primeRace","23","1","369",NA
459,"2","29","AMP_test","primeRace","23","1","363",NA
459,"2","30","AMP_test","primeNeutral","23","1","317",NA
459,"2","31","AMP_test","primeRace","23","1","757",NA
459,"2","32","AMP_test","primeRace","23","1","621",NA
459,"2","33","AMP_test","primeRace","23","1","505",NA
459,"2","34","AMP_test","primeNeutral","23","1","547",NA
459,"2","35","AMP_test","primeRace","18","0","316",NA
459,"2","36","AMP_test","primeNeutral","23","1","437",NA
459,"2","37","AMP_test","primeRace","23","1","348",NA
459,"2","38","AMP_test","primeRace","23","1","1222",NA
459,"2","39","AMP_test","primeRace","23","1","160",NA
459,"2","40","AMP_test","primeNeutral","23","1","355",NA
459,"2","41","AMP_test","primeNeutral","18","0","350",NA
459,"2","42","AMP_test","primeRace","23","1","271",NA
459,"2","43","AMP_test","primeRace","23","1","576",NA
459,"2","44","AMP_test","primeNeutral","23","1","270",NA
459,"2","45","AMP_test","primeNeutral","23","1","98",NA
459,"2","46","AMP_test","primeNeutral","23","1","899",NA
459,"2","47","AMP_test","primeRace","23","1","73",NA
459,"2","48","AMP_test","primeNeutral","23","1","583",NA
459,"2","49","AMP_test","primeRace","23","1","260",NA
459,"2","50","AMP_test","primeNeutral","23","1","422",NA
459,"2","51","AMP_test","primeRace","23","1","190",NA
459,"2","52","AMP_test","primeNeutral","23","1","372",NA
459,"2","53","AMP_test","primeRace","23","1","505",NA
459,"2","54","AMP_test","primeRace","23","1","484",NA
459,"2","55","AMP_test","primeNeutral","23","1","470",NA
459,"2","56","AMP_test","primeNeutral","23","1","415",NA
459,"2","57","AMP_test","primeNeutral","23","1","426",NA
459,"2","58","AMP_test","primeNeutral","23","1","1",NA
459,"2","59","AMP_test","primeRace","23","1","707",NA
459,"2","60","AMP_test","primeNeutral","23","1","473",NA
459,"2","61","AMP_test","primeNeutral","23","1","356",NA
459,"2","62","AMP_test","primeNeutral","23","1","292",NA
459,"2","63","AMP_test","primeRace","23","1","530",NA
459,"2","64","AMP_test","primeNeutral","23","1","2109",NA
459,"2","65","AMP_test","primeRace","23","1","316",NA
459,"2","66","AMP_test","primeNeutral","23","1","238",NA
459,"2","67","AMP_test","primeRace","23","1","185",NA
459,"2","68","AMP_test","primeNeutral","23","1","330",NA
459,"2","69","AMP_test","primeRace","23","1","472",NA
459,"2","70","AMP_test","primeRace","23","1","148",NA
459,"2","71","AMP_test","primeRace","23","1","376",NA
459,"2","72","AMP_test","primeRace","23","1","392",NA
459,"2","73","AMP_test","primeNeutral","23","1","400",NA
459,"2","74","AMP_test","primeNeutral","23","1","602",NA
459,"2","75","AMP_test","primeRace","23","1","1934",NA
459,"2","76","AMP_test","primeRace","23","1","307",NA
459,"2","77","AMP_test","primeRace","23","1","2014",NA
459,"2","78","AMP_test","primeNeutral","23","1","258",NA
459,"2","79","AMP_test","primeNeutral","23","1","45",NA
459,"2","80","AMP_test","primeRace","23","1","3",NA
459,"2","81","AMP_test","primeRace","23","1","15",NA
459,"2","82","AMP_test","primeNeutral","23","1","195",NA
459,"2","83","AMP_test","primeNeutral","23","1","1658",NA
459,"2","84","AMP_test","primeRace","23","1","1224",NA
459,"2","85","AMP_test","primeNeutral","23","1","347",NA
459,"2","86","AMP_test","primeNeutral","23","1","629",NA
459,"2","87","AMP_test","primeRace","23","1","243",NA
459,"2","88","AMP_test","primeNeutral","23","1","1201",NA
459,"2","89","AMP_test","primeRace","23","1","299",NA
459,"2","90","AMP_test","primeNeutral","23","1","230",NA
459,"2","91","AMP_test","primeRace","23","1","228",NA
459,"2","92","AMP_test","primeRace","23","1","213",NA
459,"2","93","AMP_test","primeNeutral","23","1","252",NA
459,"2","94","AMP_test","primeRace","23","1","448",NA
459,"2","95","AMP_test","primeNeutral","23","1","300",NA
459,"2","96","AMP_test","primeRace","23","1","371",NA
459,"2","97","AMP_test","primeNeutral","23","1","391",NA
459,"2","98","AMP_test","primeRace","23","1","171",NA
459,"2","99","AMP_test","primeNeutral","23","1","367",NA
459,"2","100","AMP_test","primeRace","23","1","1355",NA
459,"2","101","AMP_test","primeNeutral","23","1","5558",NA
459,"1","1","demographics","age","27","1","6010",NA
459,"1","2","demographics","gender","FEMALE","1","9525",NA
459,"1","2","targetcompatiblepractice","targetAleft","18","1","3252",NA
459,"1","3","targetcompatiblepractice","targetAleft","18","1","747",NA
459,"1","4","targetcompatiblepractice","targetBright","23","1","744",NA
459,"1","5","targetcompatiblepractice","targetBright","23","1","580",NA
459,"1","6","targetcompatiblepractice","targetAleft","18","1","572",NA
459,"1","7","targetcompatiblepractice","targetBright","23","1","718",NA
459,"1","8","targetcompatiblepractice","targetBright","23","1","551",NA
459,"1","9","targetcompatiblepractice","targetBright","23","1","537",NA
459,"1","10","targetcompatiblepractice","targetAleft","18","1","557",NA
459,"1","11","targetcompatiblepractice","targetBright","23","1","649",NA
459,"1","12","targetcompatiblepractice","targetAleft","18","1","522",NA
459,"1","13","targetcompatiblepractice","targetAleft","18","1","483",NA
459,"1","14","targetcompatiblepractice","targetBright","23","1","549",NA
459,"1","15","targetcompatiblepractice","targetAleft","18","1","560",NA
459,"1","16","targetcompatiblepractice","targetBright","23","1","648",NA
459,"1","17","targetcompatiblepractice","targetAleft","18","1","555",NA
459,"1","18","targetcompatiblepractice","targetBright","23","1","533",NA
459,"1","19","targetcompatiblepractice","targetBright","23","1","507",NA
459,"1","20","targetcompatiblepractice","targetAleft","18","1","602",NA
459,"1","21","targetcompatiblepractice","targetAleft","18","1","509",NA
459,"2","2","attributepractice","attributeB","23","1","1417",NA
459,"2","3","attributepractice","attributeB","23","1","688",NA
459,"2","4","attributepractice","attributeB","23","1","590",NA
459,"2","5","attributepractice","attributeA","18","1","603",NA
459,"2","6","attributepractice","attributeB","23","1","1145",NA
459,"2","7","attributepractice","attributeA","18","1","531",NA
459,"2","8","attributepractice","attributeB","23","1","585",NA
459,"2","9","attributepractice","attributeA","18","1","1034",NA
459,"2","10","attributepractice","attributeB","23","1","1076",NA
459,"2","11","attributepractice","attributeA","18","1","588",NA
459,"2","12","attributepractice","attributeB","23","1","709",NA
459,"2","13","attributepractice","attributeA","18","1","575",NA
459,"2","14","attributepractice","attributeB","23","1","645",NA
459,"2","15","attributepractice","attributeA","18","1","557",NA
459,"2","16","attributepractice","attributeB","23","1","695",NA
459,"2","17","attributepractice","attributeA","18","1","531",NA
459,"2","18","attributepractice","attributeA","18","1","754",NA
459,"2","19","attributepractice","attributeA","18","1","480",NA
459,"2","20","attributepractice","attributeB","23","1","507",NA
459,"2","21","attributepractice","attributeA","18","1","1066",NA
459,"3","2","compatibletest1","attributeA","18","1","1137",NA
459,"3","3","compatibletest1","targetBright","23","1","809",NA
459,"3","4","compatibletest1","attributeA","18","1","1114",NA
459,"3","5","compatibletest1","targetAleft","18","1","815",NA
459,"3","6","compatibletest1","attributeA","18","1","761",NA
459,"3","7","compatibletest1","targetAleft","18","1","531",NA
459,"3","8","compatibletest1","attributeB","23","1","1809",NA
459,"3","9","compatibletest1","targetBright","23","1","533",NA
459,"3","10","compatibletest1","attributeB","23","1","1285",NA
459,"3","11","compatibletest1","targetBright","23","1","735",NA
459,"3","12","compatibletest1","attributeB","23","1","715",NA
459,"3","13","compatibletest1","targetAleft","18","1","543",NA
459,"3","14","compatibletest1","attributeA","18","1","858",NA
459,"3","15","compatibletest1","targetAleft","18","1","574",NA
459,"3","16","compatibletest1","attributeA","18","1","821",NA
459,"3","17","compatibletest1","targetBright","23","1","570",NA
459,"3","18","compatibletest1","attributeB","23","1","649",NA
459,"3","19","compatibletest1","targetAleft","18","1","536",NA
459,"3","20","compatibletest1","attributeB","23","1","619",NA
459,"3","21","compatibletest1","targetBright","23","1","606",NA
459,"5","1","compatibletest2","attributeA","18","1","1524",NA
459,"5","2","compatibletest2","targetBright","23","1","670",NA
459,"5","3","compatibletest2","attributeB","23","1","577",NA
459,"5","4","compatibletest2","targetBright","23","1","513",NA
459,"5","5","compatibletest2","attributeA","18","1","701",NA
459,"5","6","compatibletest2","targetBright","23","1","604",NA
459,"5","7","compatibletest2","attributeA","18","1","608",NA
459,"5","8","compatibletest2","targetAleft","18","1","1782",NA
459,"5","9","compatibletest2","attributeB","23","1","711",NA
459,"5","10","compatibletest2","targetBright","23","1","522",NA
459,"5","11","compatibletest2","attributeB","23","1","816",NA
459,"5","12","compatibletest2","targetBright","23","1","485",NA
459,"5","13","compatibletest2","attributeB","23","1","542",NA
459,"5","14","compatibletest2","targetAleft","18","1","659",NA
459,"5","15","compatibletest2","attributeA","18","1","646",NA
459,"5","16","compatibletest2","targetBright","23","1","658",NA
459,"5","17","compatibletest2","attributeB","23","1","574",NA
459,"5","18","compatibletest2","targetAleft","18","1","645",NA
459,"5","19","compatibletest2","attributeB","23","1","569",NA
459,"5","20","compatibletest2","targetBright","23","0","1064",NA
459,"5","21","compatibletest2","attributeA","18","1","975",NA
459,"5","22","compatibletest2","targetBright","23","1","650",NA
459,"5","23","compatibletest2","attributeB","23","1","1142",NA
459,"5","24","compatibletest2","targetBright","23","1","583",NA
459,"5","25","compatibletest2","attributeA","18","1","667",NA
459,"5","26","compatibletest2","targetAleft","18","1","709",NA
459,"5","27","compatibletest2","attributeB","23","1","684",NA
459,"5","28","compatibletest2","targetAleft","18","1","714",NA
459,"5","29","compatibletest2","attributeA","18","1","878",NA
459,"5","30","compatibletest2","targetAleft","18","1","632",NA
459,"5","31","compatibletest2","attributeB","23","1","872",NA
459,"5","32","compatibletest2","targetAleft","18","1","992",NA
459,"5","33","compatibletest2","attributeB","23","1","923",NA
459,"5","34","compatibletest2","targetAleft","18","1","644",NA
459,"5","35","compatibletest2","attributeA","18","1","820",NA
459,"5","36","compatibletest2","targetAleft","18","1","481",NA
459,"5","37","compatibletest2","attributeA","18","1","1098",NA
459,"5","38","compatibletest2","targetAleft","18","1","690",NA
459,"5","39","compatibletest2","attributeA","18","1","1439",NA
459,"5","40","compatibletest2","targetBright","23","1","613",NA
459,"6","2","targetincompatiblepractice","targetBleft","18","1","1009",NA
459,"6","3","targetincompatiblepractice","targetAright","23","1","550",NA
459,"6","4","targetincompatiblepractice","targetAright","23","1","692",NA
459,"6","5","targetincompatiblepractice","targetAright","23","1","574",NA
459,"6","6","targetincompatiblepractice","targetBleft","18","1","619",NA
459,"6","7","targetincompatiblepractice","targetAright","23","1","714",NA
459,"6","8","targetincompatiblepractice","targetAright","23","1","611",NA
459,"6","9","targetincompatiblepractice","targetBleft","18","1","817",NA
459,"6","10","targetincompatiblepractice","targetAright","23","1","672",NA
459,"6","11","targetincompatiblepractice","targetAright","23","1","595",NA
459,"6","12","targetincompatiblepractice","targetAright","23","1","437",NA
459,"6","13","targetincompatiblepractice","targetBleft","18","1","579",NA
459,"6","14","targetincompatiblepractice","targetBleft","18","1","586",NA
459,"6","15","targetincompatiblepractice","targetBleft","18","1","541",NA
459,"6","16","targetincompatiblepractice","targetBleft","18","1","428",NA
459,"6","17","targetincompatiblepractice","targetBleft","18","1","514",NA
459,"6","18","targetincompatiblepractice","targetAright","23","0","806",NA
459,"6","19","targetincompatiblepractice","targetBleft","18","1","641",NA
459,"6","20","targetincompatiblepractice","targetBleft","18","1","526",NA
459,"6","21","targetincompatiblepractice","targetAright","23","1","516",NA
459,"7","2","incompatibletest1","attributeA","18","1","862",NA
459,"7","3","incompatibletest1","targetAright","23","1","1075",NA
459,"7","4","incompatibletest1","attributeB","23","1","835",NA
459,"7","5","incompatibletest1","targetBleft","18","1","774",NA
459,"7","6","incompatibletest1","attributeB","23","0","1241",NA
459,"7","7","incompatibletest1","targetBleft","18","1","1516",NA
459,"7","8","incompatibletest1","attributeA","18","1","1588",NA
459,"7","9","incompatibletest1","targetBleft","18","1","890",NA
459,"7","10","incompatibletest1","attributeB","23","1","800",NA
459,"7","11","incompatibletest1","targetAright","23","1","780",NA
459,"7","12","incompatibletest1","attributeB","23","0","1239",NA
459,"7","13","incompatibletest1","targetBleft","18","1","1250",NA
459,"7","14","incompatibletest1","attributeB","23","1","2304",NA
459,"7","15","incompatibletest1","targetAright","23","1","1432",NA
459,"7","16","incompatibletest1","attributeA","18","1","741",NA
459,"7","17","incompatibletest1","targetAright","23","1","801",NA
459,"7","18","incompatibletest1","attributeA","18","1","1385",NA
459,"7","19","incompatibletest1","targetBleft","18","0","1175",NA
459,"7","20","incompatibletest1","attributeA","18","1","831",NA
459,"7","21","incompatibletest1","targetAright","23","1","824",NA
459,"9","1","incompatibletest2","attributeB","23","1","1571",NA
459,"9","2","incompatibletest2","targetAright","23","1","578",NA
459,"9","3","incompatibletest2","attributeB","23","1","741",NA
459,"9","4","incompatibletest2","targetBleft","18","1","784",NA
459,"9","5","incompatibletest2","attributeA","18","1","713",NA
459,"9","6","incompatibletest2","targetAright","23","1","794",NA
459,"9","7","incompatibletest2","attributeA","18","1","892",NA
459,"9","8","incompatibletest2","targetAright","23","1","697",NA
459,"9","9","incompatibletest2","attributeA","18","1","794",NA
459,"9","10","incompatibletest2","targetBleft","18","1","770",NA
459,"9","11","incompatibletest2","attributeB","23","1","927",NA
459,"9","12","incompatibletest2","targetAright","23","1","597",NA
459,"9","13","incompatibletest2","attributeB","23","1","668",NA
459,"9","14","incompatibletest2","targetAright","23","1","462",NA
459,"9","15","incompatibletest2","attributeA","18","1","855",NA
459,"9","16","incompatibletest2","targetBleft","18","1","916",NA
459,"9","17","incompatibletest2","attributeA","18","1","687",NA
459,"9","18","incompatibletest2","targetAright","23","1","775",NA
459,"9","19","incompatibletest2","attributeB","23","1","1139",NA
459,"9","20","incompatibletest2","targetAright","23","1","521",NA
459,"9","21","incompatibletest2","attributeA","18","1","944",NA
459,"9","22","incompatibletest2","targetBleft","18","1","551",NA
459,"9","23","incompatibletest2","attributeA","18","0","1071",NA
459,"9","24","incompatibletest2","targetBleft","18","1","803",NA
459,"9","25","incompatibletest2","attributeB","23","1","690",NA
459,"9","26","incompatibletest2","targetBleft","18","1","686",NA
459,"9","27","incompatibletest2","attributeB","23","1","1048",NA
459,"9","28","incompatibletest2","targetAright","23","1","745",NA
459,"9","29","incompatibletest2","attributeA","18","1","1006",NA
459,"9","30","incompatibletest2","targetAright","23","1","753",NA
459,"9","31","incompatibletest2","attributeB","23","1","1103",NA
459,"9","32","incompatibletest2","targetAright","23","1","480",NA
459,"9","33","incompatibletest2","attributeB","23","1","912",NA
459,"9","34","incompatibletest2","targetBleft","18","1","607",NA
459,"9","35","incompatibletest2","attributeB","23","1","750",NA
459,"9","36","incompatibletest2","targetBleft","18","0","1230",NA
459,"9","37","incompatibletest2","attributeA","18","1","1964",NA
459,"9","38","incompatibletest2","targetBleft","18","1","1387",NA
459,"9","39","incompatibletest2","attributeA","18","1","776",NA
459,"9","40","incompatibletest2","targetBleft","18","1","621",NA
459,"1","1","racism_scale","likert_scale","4",NA,NA,NA
459,"1","2","racism_scale","likert_scale","4",NA,NA,NA
459,"1","3","racism_scale","likert_scale","1",NA,NA,NA
459,"1","4","racism_scale","likert_scale","3",NA,NA,NA
459,"1","5","racism_scale","likert_scale","4",NA,NA,NA
459,"1","6","racism_scale","likert_scale","4",NA,NA,NA
459,"1","7","racism_scale","likert_scale","2",NA,NA,NA
459,"1","1","ratings","images","4",NA,NA,NA
459,"1","2","ratings","images","4",NA,NA,NA
459,"1","3","ratings","images","4",NA,NA,NA
459,"1","4","ratings","images","5",NA,NA,NA
459,"1","5","ratings","images","6",NA,NA,NA
459,"1","6","ratings","images","6",NA,NA,NA
468,NA,NA,NA,NA,NA,NA,NA,"I don't know"
468,"1","4","AMP_practice","primeNeutralpractice","18","1","2876",NA
468,"1","5","AMP_practice","primeRacepractice","23","0","2430",NA
468,"1","6","AMP_practice","primeNeutralpractice","18","1","1314",NA
468,"1","7","AMP_practice","primeNeutralpractice","23","1","1356",NA
468,"1","8","AMP_practice","primeRacepractice","23","0","1059",NA
468,"1","9","AMP_practice","primeNeutralpractice","23","1","606",NA
468,"1","10","AMP_practice","primeRacepractice","18","1","699",NA
468,"1","11","AMP_practice","primeRacepractice","23","0","573",NA
468,"1","12","AMP_practice","primeRacepractice","18","1","731",NA
468,"1","13","AMP_practice","primeNeutralpractice","18","1","1396",NA
468,"2","2","AMP_test","primeNeutral","23","1","1071",NA
468,"2","3","AMP_test","primeRace","18","0","522",NA
468,"2","4","AMP_test","primeRace","23","1","538",NA
468,"2","5","AMP_test","primeNeutral","18","0","642",NA
468,"2","6","AMP_test","primeRace","23","1","1038",NA
468,"2","7","AMP_test","primeNeutral","18","0","962",NA
468,"2","8","AMP_test","primeNeutral","18","0","953",NA
468,"2","9","AMP_test","primeRace","23","1","1024",NA
468,"2","10","AMP_test","primeNeutral","18","0","917",NA
468,"2","11","AMP_test","primeRace","23","1","1270",NA
468,"2","12","AMP_test","primeNeutral","18","0","1288",NA
468,"2","13","AMP_test","primeNeutral","23","1","778",NA
468,"2","14","AMP_test","primeRace","23","1","1121",NA
468,"2","15","AMP_test","primeNeutral","18","0","625",NA
468,"2","16","AMP_test","primeRace","23","1","662",NA
468,"2","17","AMP_test","primeNeutral","23","1","553",NA
468,"2","18","AMP_test","primeNeutral","18","0","744",NA
468,"2","19","AMP_test","primeRace","18","0","944",NA
468,"2","20","AMP_test","primeRace","18","0","720",NA
468,"2","21","AMP_test","primeNeutral","23","1","577",NA
468,"2","22","AMP_test","primeNeutral","23","1","479",NA
468,"2","23","AMP_test","primeNeutral","18","0","586",NA
468,"2","24","AMP_test","primeNeutral","18","0","824",NA
468,"2","25","AMP_test","primeRace","23","1","581",NA
468,"2","26","AMP_test","primeNeutral","23","1","795",NA
468,"2","27","AMP_test","primeNeutral","23","1","505",NA
468,"2","28","AMP_test","primeNeutral","18","0","402",NA
468,"2","29","AMP_test","primeRace","18","0","648",NA
468,"2","30","AMP_test","primeNeutral","23","1","508",NA
468,"2","31","AMP_test","primeNeutral","18","0","589",NA
468,"2","32","AMP_test","primeNeutral","18","0","619",NA
468,"2","33","AMP_test","primeRace","18","0","679",NA
468,"2","34","AMP_test","primeRace","18","0","602",NA
468,"2","35","AMP_test","primeRace","23","1","679",NA
468,"2","36","AMP_test","primeNeutral","18","0","626",NA
468,"2","37","AMP_test","primeNeutral","23","1","662",NA
468,"2","38","AMP_test","primeNeutral","23","1","506",NA
468,"2","39","AMP_test","primeRace","23","1","515",NA
468,"2","40","AMP_test","primeRace","23","1","628",NA
468,"2","41","AMP_test","primeNeutral","18","0","601",NA
468,"2","42","AMP_test","primeRace","18","0","590",NA
468,"2","43","AMP_test","primeRace","18","0","620",NA
468,"2","44","AMP_test","primeNeutral","23","1","625",NA
468,"2","45","AMP_test","primeRace","18","0","765",NA
468,"2","46","AMP_test","primeNeutral","18","0","645",NA
468,"2","47","AMP_test","primeNeutral","23","1","472",NA
468,"2","48","AMP_test","primeRace","23","1","539",NA
468,"2","49","AMP_test","primeRace","18","0","507",NA
468,"2","50","AMP_test","primeNeutral","23","1","404",NA
468,"2","51","AMP_test","primeRace","23","1","466",NA
468,"2","52","AMP_test","primeNeutral","23","1","413",NA
468,"2","53","AMP_test","primeNeutral","23","1","402",NA
468,"2","54","AMP_test","primeRace","23","1","407",NA
468,"2","55","AMP_test","primeNeutral","18","0","541",NA
468,"2","56","AMP_test","primeNeutral","18","0","485",NA
468,"2","57","AMP_test","primeRace","23","1","527",NA
468,"2","58","AMP_test","primeNeutral","18","0","391",NA
468,"2","59","AMP_test","primeRace","23","1","373",NA
468,"2","60","AMP_test","primeRace","23","1","260",NA
468,"2","61","AMP_test","primeRace","18","0","271",NA
468,"2","62","AMP_test","primeNeutral","18","0","474",NA
468,"2","63","AMP_test","primeRace","18","0","564",NA
468,"2","64","AMP_test","primeNeutral","23","1","427",NA
468,"2","65","AMP_test","primeNeutral","23","1","488",NA
468,"2","66","AMP_test","primeRace","23","1","442",NA
468,"2","67","AMP_test","primeRace","18","0","502",NA
468,"2","68","AMP_test","primeNeutral","23","1","343",NA
468,"2","69","AMP_test","primeNeutral","18","0","343",NA
468,"2","70","AMP_test","primeRace","23","1","399",NA
468,"2","71","AMP_test","primeRace","23","1","661",NA
468,"2","72","AMP_test","primeRace","18","0","448",NA
468,"2","73","AMP_test","primeRace","23","1","452",NA
468,"2","74","AMP_test","primeRace","23","1","488",NA
468,"2","75","AMP_test","primeRace","18","0","449",NA
468,"2","76","AMP_test","primeRace","18","0","549",NA
468,"2","77","AMP_test","primeRace","23","1","605",NA
468,"2","78","AMP_test","primeNeutral","18","0","906",NA
468,"2","79","AMP_test","primeNeutral","23","1","563",NA
468,"2","80","AMP_test","primeRace","18","0","787",NA
468,"2","81","AMP_test","primeNeutral","23","1","632",NA
468,"2","82","AMP_test","primeNeutral","23","1","452",NA
468,"2","83","AMP_test","primeNeutral","23","1","464",NA
468,"2","84","AMP_test","primeNeutral","23","1","403",NA
468,"2","85","AMP_test","primeRace","23","1","552",NA
