"participant","accuracy","rt","item","IAT_condition","block_order","task_order","gender","age","modern_racism_scale_total","amp_recognition_response","IAT_exclude_based_on_fast_trials","exclude"
905831587,1,1771,"primeRace","Race IAT","congruent","SCIAT first","female",64,19,"Only black faces",FALSE,FALSE
905831587,1,902,"primeNeutral","Race IAT","congruent","SCIAT first","female",64,19,"Only black faces",FALSE,FALSE
905831587,1,817,"primeRace","Race IAT","congruent","SCIAT first","female",64,19,"Only black faces",FALSE,FALSE
905831587,1,606,"primeNeutral","Race IAT","congruent","SCIAT first","female",64,19,"Only black faces",FALSE,FALSE
905831587,1,561,"primeNeutral","Race IAT","congruent","SCIAT first","female",64,19,"Only black faces",FALSE,FALSE
905831587,1,1636,"primeRace","Race IAT","congruent","SCIAT first","female",64,19,"Only black faces",FALSE,FALSE
905831587,1,2300,"primeRace","Race IAT","congruent","SCIAT first","female",64,19,"Only black faces",FALSE,FALSE
905831587,1,556,"primeRace","Race IAT","congruent","SCIAT first","female",64,19,"Only black faces",FALSE,FALSE
905831587,1,602,"primeNeutral","Race IAT","congruent","SCIAT first","female",64,19,"Only black faces",FALSE,FALSE
905831587,1,668,"primeRace","Race IAT","congruent","SCIAT first","female",64,19,"Only black faces",FALSE,FALSE
905831587,1,846,"primeRace","Race IAT","congruent","SCIAT first","female",64,19,"Only black faces",FALSE,FALSE
905831587,1,512,"primeRace","Race IAT","congruent","SCIAT first","female",64,19,"Only black faces",FALSE,FALSE
905831587,1,565,"primeRace","Race IAT","congruent","SCIAT first","female",64,19,"Only black faces",FALSE,FALSE
905831587,1,666,"primeRace","Race IAT","congruent","SCIAT first","female",64,19,"Only black faces",FALSE,FALSE
905831587,1,576,"primeRace","Race IAT","congruent","SCIAT first","female",64,19,"Only black faces",FALSE,FALSE
905831587,1,642,"primeRace","Race IAT","congruent","SCIAT first","female",64,19,"Only black faces",FALSE,FALSE
905831587,1,499,"primeNeutral","Race IAT","congruent","SCIAT first","female",64,19,"Only black faces",FALSE,FALSE
905831587,1,457,"primeNeutral","Race IAT","congruent","SCIAT first","female",64,19,"Only black faces",FALSE,FALSE
905831587,1,594,"primeNeutral","Race IAT","congruent","SCIAT first","female",64,19,"Only black faces",FALSE,FALSE
905831587,1,827,"primeRace","Race IAT","congruent","SCIAT first","female",64,19,"Only black faces",FALSE,FALSE
905831587,1,544,"primeRace","Race IAT","congruent","SCIAT first","female",64,19,"Only black faces",FALSE,FALSE
905831587,1,522,"primeRace","Race IAT","congruent","SCIAT first","female",64,19,"Only black faces",FALSE,FALSE
905831587,1,536,"primeNeutral","Race IAT","congruent","SCIAT first","female",64,19,"Only black faces",FALSE,FALSE
905831587,1,552,"primeNeutral","Race IAT","congruent","SCIAT first","female",64,19,"Only black faces",FALSE,FALSE
905831587,1,539,"primeNeutral","Race IAT","congruent","SCIAT first","female",64,19,"Only black faces",FALSE,FALSE
905831587,1,514,"primeNeutral","Race IAT","congruent","SCIAT first","female",64,19,"Only black faces",FALSE,FALSE
905831587,1,504,"primeRace","Race IAT","congruent","SCIAT first","female",64,19,"Only black faces",FALSE,FALSE
905831587,1,274,"primeNeutral","Race IAT","congruent","SCIAT first","female",64,19,"Only black faces",FALSE,FALSE
905831587,1,478,"primeNeutral","Race IAT","congruent","SCIAT first","female",64,19,"Only black faces",FALSE,FALSE
905831587,1,528,"primeNeutral","Race IAT","congruent","SCIAT first","female",64,19,"Only black faces",FALSE,FALSE
905831587,0,892,"primeRace","Race IAT","congruent","SCIAT first","female",64,19,"Only black faces",FALSE,FALSE
905831587,1,663,"primeNeutral","Race IAT","congruent","SCIAT first","female",64,19,"Only black faces",FALSE,FALSE
905831587,1,862,"primeNeutral","Race IAT","congruent","SCIAT first","female",64,19,"Only black faces",FALSE,FALSE
905831587,1,397,"primeNeutral","Race IAT","congruent","SCIAT first","female",64,19,"Only black faces",FALSE,FALSE
905831587,0,682,"primeRace","Race IAT","congruent","SCIAT first","female",64,19,"Only black faces",FALSE,FALSE
905831587,0,698,"primeRace","Race IAT","congruent","SCIAT first","female",64,19,"Only black faces",FALSE,FALSE
905831587,1,1411,"primeNeutral","Race IAT","congruent","SCIAT first","female",64,19,"Only black faces",FALSE,FALSE
905831587,0,500,"primeRace","Race IAT","congruent","SCIAT first","female",64,19,"Only black faces",FALSE,FALSE
905831587,0,765,"primeRace","Race IAT","congruent","SCIAT first","female",64,19,"Only black faces",FALSE,FALSE
905831587,0,551,"primeRace","Race IAT","congruent","SCIAT first","female",64,19,"Only black faces",FALSE,FALSE
905831587,1,1190,"primeNeutral","Race IAT","congruent","SCIAT first","female",64,19,"Only black faces",FALSE,FALSE
905831587,0,517,"primeRace","Race IAT","congruent","SCIAT first","female",64,19,"Only black faces",FALSE,FALSE
905831587,1,1071,"primeNeutral","Race IAT","congruent","SCIAT first","female",64,19,"Only black faces",FALSE,FALSE
905831587,1,572,"primeNeutral","Race IAT","congruent","SCIAT first","female",64,19,"Only black faces",FALSE,FALSE
905831587,1,565,"primeNeutral","Race IAT","congruent","SCIAT first","female",64,19,"Only black faces",FALSE,FALSE
905831587,0,561,"primeRace","Race IAT","congruent","SCIAT first","female",64,19,"Only black faces",FALSE,FALSE
905831587,0,817,"primeRace","Race IAT","congruent","SCIAT first","female",64,19,"Only black faces",FALSE,FALSE
905831587,0,786,"primeRace","Race IAT","congruent","SCIAT first","female",64,19,"Only black faces",FALSE,FALSE
905831587,1,788,"primeNeutral","Race IAT","congruent","SCIAT first","female",64,19,"Only black faces",FALSE,FALSE
905831587,0,550,"primeRace","Race IAT","congruent","SCIAT first","female",64,19,"Only black faces",FALSE,FALSE
905831587,1,974,"primeNeutral","Race IAT","congruent","SCIAT first","female",64,19,"Only black faces",FALSE,FALSE
905831587,1,644,"primeNeutral","Race IAT","congruent","SCIAT first","female",64,19,"Only black faces",FALSE,FALSE
905831587,0,540,"primeRace","Race IAT","congruent","SCIAT first","female",64,19,"Only black faces",FALSE,FALSE
905831587,1,893,"primeNeutral","Race IAT","congruent","SCIAT first","female",64,19,"Only black faces",FALSE,FALSE
905831587,1,457,"primeNeutral","Race IAT","congruent","SCIAT first","female",64,19,"Only black faces",FALSE,FALSE
905831587,1,583,"primeNeutral","Race IAT","congruent","SCIAT first","female",64,19,"Only black faces",FALSE,FALSE
905831587,1,604,"primeNeutral","Race IAT","congruent","SCIAT first","female",64,19,"Only black faces",FALSE,FALSE
905831587,0,462,"primeRace","Race IAT","congruent","SCIAT first","female",64,19,"Only black faces",FALSE,FALSE
905831587,0,442,"primeRace","Race IAT","congruent","SCIAT first","female",64,19,"Only black faces",FALSE,FALSE
905831587,1,582,"primeNeutral","Race IAT","congruent","SCIAT first","female",64,19,"Only black faces",FALSE,FALSE
905831587,1,647,"primeNeutral","Race IAT","congruent","SCIAT first","female",64,19,"Only black faces",FALSE,FALSE
905831587,1,588,"primeNeutral","Race IAT","congruent","SCIAT first","female",64,19,"Only black faces",FALSE,FALSE
905831587,0,458,"primeRace","Race IAT","congruent","SCIAT first","female",64,19,"Only black faces",FALSE,FALSE
905831587,1,686,"primeNeutral","Race IAT","congruent","SCIAT first","female",64,19,"Only black faces",FALSE,FALSE
905831587,1,698,"primeNeutral","Race IAT","congruent","SCIAT first","female",64,19,"Only black faces",FALSE,FALSE
905831587,0,610,"primeRace","Race IAT","congruent","SCIAT first","female",64,19,"Only black faces",FALSE,FALSE
905831587,1,682,"primeNeutral","Race IAT","congruent","SCIAT first","female",64,19,"Only black faces",FALSE,FALSE
905831587,1,566,"primeNeutral","Race IAT","congruent","SCIAT first","female",64,19,"Only black faces",FALSE,FALSE
905831587,1,584,"primeNeutral","Race IAT","congruent","SCIAT first","female",64,19,"Only black faces",FALSE,FALSE
905831587,1,548,"primeNeutral","Race IAT","congruent","SCIAT first","female",64,19,"Only black faces",FALSE,FALSE
905831587,0,470,"primeRace","Race IAT","congruent","SCIAT first","female",64,19,"Only black faces",FALSE,FALSE
905831587,0,406,"primeRace","Race IAT","congruent","SCIAT first","female",64,19,"Only black faces",FALSE,FALSE
905831587,1,594,"primeNeutral","Race IAT","congruent","SCIAT first","female",64,19,"Only black faces",FALSE,FALSE
905831587,1,628,"primeNeutral","Race IAT","congruent","SCIAT first","female",64,19,"Only black faces",FALSE,FALSE
905831587,1,619,"primeNeutral","Race IAT","congruent","SCIAT first","female",64,19,"Only black faces",FALSE,FALSE
905831587,0,519,"primeRace","Race IAT","congruent","SCIAT first","female",64,19,"Only black faces",FALSE,FALSE
905831587,1,502,"primeNeutral","Race IAT","congruent","SCIAT first","female",64,19,"Only black faces",FALSE,FALSE
905831587,0,650,"primeRace","Race IAT","congruent","SCIAT first","female",64,19,"Only black faces",FALSE,FALSE
905831587,0,415,"primeRace","Race IAT","congruent","SCIAT first","female",64,19,"Only black faces",FALSE,FALSE
905831587,1,762,"primeNeutral","Race IAT","congruent","SCIAT first","female",64,19,"Only black faces",FALSE,FALSE
905831587,1,711,"primeNeutral","Race IAT","congruent","SCIAT first","female",64,19,"Only black faces",FALSE,FALSE
905831587,1,585,"primeNeutral","Race IAT","congruent","SCIAT first","female",64,19,"Only black faces",FALSE,FALSE
905831587,0,755,"primeRace","Race IAT","congruent","SCIAT first","female",64,19,"Only black faces",FALSE,FALSE
905831587,1,429,"primeNeutral","Race IAT","congruent","SCIAT first","female",64,19,"Only black faces",FALSE,FALSE
905831587,0,413,"primeRace","Race IAT","congruent","SCIAT first","female",64,19,"Only black faces",FALSE,FALSE
905831587,0,291,"primeRace","Race IAT","congruent","SCIAT first","female",64,19,"Only black faces",FALSE,FALSE
905831587,1,492,"primeNeutral","Race IAT","congruent","SCIAT first","female",64,19,"Only black faces",FALSE,FALSE
905831587,0,433,"primeRace","Race IAT","congruent","SCIAT first","female",64,19,"Only black faces",FALSE,FALSE
905831587,0,1037,"primeRace","Race IAT","congruent","SCIAT first","female",64,19,"Only black faces",FALSE,FALSE
905831587,0,369,"primeRace","Race IAT","congruent","SCIAT first","female",64,19,"Only black faces",FALSE,FALSE
905831587,1,609,"primeNeutral","Race IAT","congruent","SCIAT first","female",64,19,"Only black faces",FALSE,FALSE
905831587,0,585,"primeRace","Race IAT","congruent","SCIAT first","female",64,19,"Only black faces",FALSE,FALSE
905831587,0,503,"primeRace","Race IAT","congruent","SCIAT first","female",64,19,"Only black faces",FALSE,FALSE
905831587,0,510,"primeRace","Race IAT","congruent","SCIAT first","female",64,19,"Only black faces",FALSE,FALSE
905831587,1,792,"primeNeutral","Race IAT","congruent","SCIAT first","female",64,19,"Only black faces",FALSE,FALSE
905831587,0,583,"primeRace","Race IAT","congruent","SCIAT first","female",64,19,"Only black faces",FALSE,FALSE
905831587,1,591,"primeNeutral","Race IAT","congruent","SCIAT first","female",64,19,"Only black faces",FALSE,FALSE
905831587,0,1458,"primeRace","Race IAT","congruent","SCIAT first","female",64,19,"Only black faces",FALSE,FALSE
905831587,0,349,"primeRace","Race IAT","congruent","SCIAT first","female",64,19,"Only black faces",FALSE,FALSE
905831587,1,823,"primeRace","Race IAT","congruent","SCIAT first","female",64,19,"Only black faces",FALSE,FALSE
767115399,0,652,"primeNeutral","Flowers-Insects IAT","congruent","SCIAT first","male",20,19,"Both white and black faces",FALSE,FALSE
767115399,0,815,"primeNeutral","Flowers-Insects IAT","congruent","SCIAT first","male",20,19,"Both white and black faces",FALSE,FALSE
767115399,0,868,"primeRace","Flowers-Insects IAT","congruent","SCIAT first","male",20,19,"Both white and black faces",FALSE,FALSE
767115399,0,590,"primeRace","Flowers-Insects IAT","congruent","SCIAT first","male",20,19,"Both white and black faces",FALSE,FALSE
767115399,1,812,"primeNeutral","Flowers-Insects IAT","congruent","SCIAT first","male",20,19,"Both white and black faces",FALSE,FALSE
767115399,0,633,"primeNeutral","Flowers-Insects IAT","congruent","SCIAT first","male",20,19,"Both white and black faces",FALSE,FALSE
767115399,0,741,"primeNeutral","Flowers-Insects IAT","congruent","SCIAT first","male",20,19,"Both white and black faces",FALSE,FALSE
767115399,0,533,"primeRace","Flowers-Insects IAT","congruent","SCIAT first","male",20,19,"Both white and black faces",FALSE,FALSE
767115399,0,564,"primeRace","Flowers-Insects IAT","congruent","SCIAT first","male",20,19,"Both white and black faces",FALSE,FALSE
767115399,0,532,"primeRace","Flowers-Insects IAT","congruent","SCIAT first","male",20,19,"Both white and black faces",FALSE,FALSE
767115399,0,539,"primeRace","Flowers-Insects IAT","congruent","SCIAT first","male",20,19,"Both white and black faces",FALSE,FALSE
767115399,1,947,"primeNeutral","Flowers-Insects IAT","congruent","SCIAT first","male",20,19,"Both white and black faces",FALSE,FALSE
767115399,0,827,"primeRace","Flowers-Insects IAT","congruent","SCIAT first","male",20,19,"Both white and black faces",FALSE,FALSE
767115399,0,672,"primeNeutral","Flowers-Insects IAT","congruent","SCIAT first","male",20,19,"Both white and black faces",FALSE,FALSE
767115399,0,578,"primeRace","Flowers-Insects IAT","congruent","SCIAT first","male",20,19,"Both white and black faces",FALSE,FALSE
767115399,1,448,"primeNeutral","Flowers-Insects IAT","congruent","SCIAT first","male",20,19,"Both white and black faces",FALSE,FALSE
767115399,0,420,"primeRace","Flowers-Insects IAT","congruent","SCIAT first","male",20,19,"Both white and black faces",FALSE,FALSE
767115399,1,712,"primeNeutral","Flowers-Insects IAT","congruent","SCIAT first","male",20,19,"Both white and black faces",FALSE,FALSE
767115399,1,473,"primeNeutral","Flowers-Insects IAT","congruent","SCIAT first","male",20,19,"Both white and black faces",FALSE,FALSE
767115399,1,972,"primeRace","Flowers-Insects IAT","congruent","SCIAT first","male",20,19,"Both white and black faces",FALSE,FALSE
767115399,0,594,"primeRace","Flowers-Insects IAT","congruent","SCIAT first","male",20,19,"Both white and black faces",FALSE,FALSE
767115399,0,560,"primeNeutral","Flowers-Insects IAT","congruent","SCIAT first","male",20,19,"Both white and black faces",FALSE,FALSE
767115399,1,495,"primeNeutral","Flowers-Insects IAT","congruent","SCIAT first","male",20,19,"Both white and black faces",FALSE,FALSE
767115399,0,681,"primeRace","Flowers-Insects IAT","congruent","SCIAT first","male",20,19,"Both white and black faces",FALSE,FALSE
767115399,1,827,"primeNeutral","Flowers-Insects IAT","congruent","SCIAT first","male",20,19,"Both white and black faces",FALSE,FALSE
767115399,1,1064,"primeNeutral","Flowers-Insects IAT","congruent","SCIAT first","male",20,19,"Both white and black faces",FALSE,FALSE
767115399,1,635,"primeNeutral","Flowers-Insects IAT","congruent","SCIAT first","male",20,19,"Both white and black faces",FALSE,FALSE
767115399,0,559,"primeNeutral","Flowers-Insects IAT","congruent","SCIAT first","male",20,19,"Both white and black faces",FALSE,FALSE
767115399,0,558,"primeNeutral","Flowers-Insects IAT","congruent","SCIAT first","male",20,19,"Both white and black faces",FALSE,FALSE
767115399,0,413,"primeNeutral","Flowers-Insects IAT","congruent","SCIAT first","male",20,19,"Both white and black faces",FALSE,FALSE
767115399,0,394,"primeNeutral","Flowers-Insects IAT","congruent","SCIAT first","male",20,19,"Both white and black faces",FALSE,FALSE
767115399,0,616,"primeRace","Flowers-Insects IAT","congruent","SCIAT first","male",20,19,"Both white and black faces",FALSE,FALSE
767115399,0,844,"primeRace","Flowers-Insects IAT","congruent","SCIAT first","male",20,19,"Both white and black faces",FALSE,FALSE
767115399,1,304,"primeNeutral","Flowers-Insects IAT","congruent","SCIAT first","male",20,19,"Both white and black faces",FALSE,FALSE
767115399,0,865,"primeNeutral","Flowers-Insects IAT","congruent","SCIAT first","male",20,19,"Both white and black faces",FALSE,FALSE
767115399,0,660,"primeRace","Flowers-Insects IAT","congruent","SCIAT first","male",20,19,"Both white and black faces",FALSE,FALSE
767115399,1,743,"primeRace","Flowers-Insects IAT","congruent","SCIAT first","male",20,19,"Both white and black faces",FALSE,FALSE
767115399,0,439,"primeNeutral","Flowers-Insects IAT","congruent","SCIAT first","male",20,19,"Both white and black faces",FALSE,FALSE
767115399,0,579,"primeNeutral","Flowers-Insects IAT","congruent","SCIAT first","male",20,19,"Both white and black faces",FALSE,FALSE
767115399,1,617,"primeNeutral","Flowers-Insects IAT","congruent","SCIAT first","male",20,19,"Both white and black faces",FALSE,FALSE
767115399,0,549,"primeRace","Flowers-Insects IAT","congruent","SCIAT first","male",20,19,"Both white and black faces",FALSE,FALSE
767115399,0,957,"primeRace","Flowers-Insects IAT","congruent","SCIAT first","male",20,19,"Both white and black faces",FALSE,FALSE
767115399,1,596,"primeRace","Flowers-Insects IAT","congruent","SCIAT first","male",20,19,"Both white and black faces",FALSE,FALSE
767115399,1,642,"primeRace","Flowers-Insects IAT","congruent","SCIAT first","male",20,19,"Both white and black faces",FALSE,FALSE
767115399,0,413,"primeRace","Flowers-Insects IAT","congruent","SCIAT first","male",20,19,"Both white and black faces",FALSE,FALSE
767115399,0,1002,"primeRace","Flowers-Insects IAT","congruent","SCIAT first","male",20,19,"Both white and black faces",FALSE,FALSE
767115399,0,1936,"primeNeutral","Flowers-Insects IAT","congruent","SCIAT first","male",20,19,"Both white and black faces",FALSE,FALSE
767115399,0,608,"primeNeutral","Flowers-Insects IAT","congruent","SCIAT first","male",20,19,"Both white and black faces",FALSE,FALSE
767115399,1,661,"primeRace","Flowers-Insects IAT","congruent","SCIAT first","male",20,19,"Both white and black faces",FALSE,FALSE
767115399,0,880,"primeRace","Flowers-Insects IAT","congruent","SCIAT first","male",20,19,"Both white and black faces",FALSE,FALSE
767115399,0,666,"primeRace","Flowers-Insects IAT","congruent","SCIAT first","male",20,19,"Both white and black faces",FALSE,FALSE
767115399,1,565,"primeNeutral","Flowers-Insects IAT","congruent","SCIAT first","male",20,19,"Both white and black faces",FALSE,FALSE
767115399,0,372,"primeRace","Flowers-Insects IAT","congruent","SCIAT first","male",20,19,"Both white and black faces",FALSE,FALSE
767115399,0,362,"primeRace","Flowers-Insects IAT","congruent","SCIAT first","male",20,19,"Both white and black faces",FALSE,FALSE
767115399,1,441,"primeNeutral","Flowers-Insects IAT","congruent","SCIAT first","male",20,19,"Both white and black faces",FALSE,FALSE
767115399,0,389,"primeRace","Flowers-Insects IAT","congruent","SCIAT first","male",20,19,"Both white and black faces",FALSE,FALSE
767115399,0,443,"primeNeutral","Flowers-Insects IAT","congruent","SCIAT first","male",20,19,"Both white and black faces",FALSE,FALSE
767115399,1,414,"primeNeutral","Flowers-Insects IAT","congruent","SCIAT first","male",20,19,"Both white and black faces",FALSE,FALSE
767115399,0,627,"primeRace","Flowers-Insects IAT","congruent","SCIAT first","male",20,19,"Both white and black faces",FALSE,FALSE
767115399,0,568,"primeNeutral","Flowers-Insects IAT","congruent","SCIAT first","male",20,19,"Both white and black faces",FALSE,FALSE
767115399,1,750,"primeRace","Flowers-Insects IAT","congruent","SCIAT first","male",20,19,"Both white and black faces",FALSE,FALSE
767115399,1,1021,"primeNeutral","Flowers-Insects IAT","congruent","SCIAT first","male",20,19,"Both white and black faces",FALSE,FALSE
767115399,1,610,"primeRace","Flowers-Insects IAT","congruent","SCIAT first","male",20,19,"Both white and black faces",FALSE,FALSE
767115399,1,479,"primeRace","Flowers-Insects IAT","congruent","SCIAT first","male",20,19,"Both white and black faces",FALSE,FALSE
767115399,0,377,"primeNeutral","Flowers-Insects IAT","congruent","SCIAT first","male",20,19,"Both white and black faces",FALSE,FALSE
767115399,0,272,"primeNeutral","Flowers-Insects IAT","congruent","SCIAT first","male",20,19,"Both white and black faces",FALSE,FALSE
767115399,0,338,"primeNeutral","Flowers-Insects IAT","congruent","SCIAT first","male",20,19,"Both white and black faces",FALSE,FALSE
767115399,1,90,"primeNeutral","Flowers-Insects IAT","congruent","SCIAT first","male",20,19,"Both white and black faces",FALSE,FALSE
767115399,1,715,"primeNeutral","Flowers-Insects IAT","congruent","SCIAT first","male",20,19,"Both white and black faces",FALSE,FALSE
767115399,0,332,"primeNeutral","Flowers-Insects IAT","congruent","SCIAT first","male",20,19,"Both white and black faces",FALSE,FALSE
767115399,0,555,"primeRace","Flowers-Insects IAT","congruent","SCIAT first","male",20,19,"Both white and black faces",FALSE,FALSE
767115399,0,323,"primeNeutral","Flowers-Insects IAT","congruent","SCIAT first","male",20,19,"Both white and black faces",FALSE,FALSE
767115399,0,203,"primeNeutral","Flowers-Insects IAT","congruent","SCIAT first","male",20,19,"Both white and black faces",FALSE,FALSE
767115399,0,296,"primeNeutral","Flowers-Insects IAT","congruent","SCIAT first","male",20,19,"Both white and black faces",FALSE,FALSE
767115399,1,98,"primeNeutral","Flowers-Insects IAT","congruent","SCIAT first","male",20,19,"Both white and black faces",FALSE,FALSE
767115399,1,179,"primeNeutral","Flowers-Insects IAT","congruent","SCIAT first","male",20,19,"Both white and black faces",FALSE,FALSE
767115399,0,10,"primeRace","Flowers-Insects IAT","congruent","SCIAT first","male",20,19,"Both white and black faces",FALSE,FALSE
767115399,0,6,"primeNeutral","Flowers-Insects IAT","congruent","SCIAT first","male",20,19,"Both white and black faces",FALSE,FALSE
767115399,0,3987,"primeRace","Flowers-Insects IAT","congruent","SCIAT first","male",20,19,"Both white and black faces",FALSE,FALSE
767115399,0,490,"primeRace","Flowers-Insects IAT","congruent","SCIAT first","male",20,19,"Both white and black faces",FALSE,FALSE
767115399,0,332,"primeRace","Flowers-Insects IAT","congruent","SCIAT first","male",20,19,"Both white and black faces",FALSE,FALSE
767115399,1,405,"primeRace","Flowers-Insects IAT","congruent","SCIAT first","male",20,19,"Both white and black faces",FALSE,FALSE
767115399,1,369,"primeRace","Flowers-Insects IAT","congruent","SCIAT first","male",20,19,"Both white and black faces",FALSE,FALSE
767115399,1,479,"primeNeutral","Flowers-Insects IAT","congruent","SCIAT first","male",20,19,"Both white and black faces",FALSE,FALSE
767115399,0,490,"primeRace","Flowers-Insects IAT","congruent","SCIAT first","male",20,19,"Both white and black faces",FALSE,FALSE
767115399,0,380,"primeNeutral","Flowers-Insects IAT","congruent","SCIAT first","male",20,19,"Both white and black faces",FALSE,FALSE
767115399,0,562,"primeRace","Flowers-Insects IAT","congruent","SCIAT first","male",20,19,"Both white and black faces",FALSE,FALSE
767115399,1,689,"primeNeutral","Flowers-Insects IAT","congruent","SCIAT first","male",20,19,"Both white and black faces",FALSE,FALSE
767115399,0,483,"primeNeutral","Flowers-Insects IAT","congruent","SCIAT first","male",20,19,"Both white and black faces",FALSE,FALSE
767115399,0,613,"primeRace","Flowers-Insects IAT","congruent","SCIAT first","male",20,19,"Both white and black faces",FALSE,FALSE
767115399,0,554,"primeRace","Flowers-Insects IAT","congruent","SCIAT first","male",20,19,"Both white and black faces",FALSE,FALSE
767115399,1,625,"primeRace","Flowers-Insects IAT","congruent","SCIAT first","male",20,19,"Both white and black faces",FALSE,FALSE
767115399,0,365,"primeNeutral","Flowers-Insects IAT","congruent","SCIAT first","male",20,19,"Both white and black faces",FALSE,FALSE
767115399,1,796,"primeNeutral","Flowers-Insects IAT","congruent","SCIAT first","male",20,19,"Both white and black faces",FALSE,FALSE
767115399,0,570,"primeRace","Flowers-Insects IAT","congruent","SCIAT first","male",20,19,"Both white and black faces",FALSE,FALSE
767115399,0,592,"primeRace","Flowers-Insects IAT","congruent","SCIAT first","male",20,19,"Both white and black faces",FALSE,FALSE
767115399,0,678,"primeRace","Flowers-Insects IAT","congruent","SCIAT first","male",20,19,"Both white and black faces",FALSE,FALSE
767115399,1,745,"primeRace","Flowers-Insects IAT","congruent","SCIAT first","male",20,19,"Both white and black faces",FALSE,FALSE
767115399,0,800,"primeRace","Flowers-Insects IAT","congruent","SCIAT first","male",20,19,"Both white and black faces",FALSE,FALSE
767115399,0,597,"primeRace","Flowers-Insects IAT","congruent","SCIAT first","male",20,19,"Both white and black faces",FALSE,FALSE
830748203,1,1080,"primeNeutral","Race IAT","congruent","SCIAT first","female",46,13,"Both white and black faces",FALSE,FALSE
830748203,1,480,"primeRace","Race IAT","congruent","SCIAT first","female",46,13,"Both white and black faces",FALSE,FALSE
830748203,1,442,"primeNeutral","Race IAT","congruent","SCIAT first","female",46,13,"Both white and black faces",FALSE,FALSE
830748203,1,586,"primeRace","Race IAT","congruent","SCIAT first","female",46,13,"Both white and black faces",FALSE,FALSE
830748203,1,424,"primeNeutral","Race IAT","congruent","SCIAT first","female",46,13,"Both white and black faces",FALSE,FALSE
830748203,1,445,"primeRace","Race IAT","congruent","SCIAT first","female",46,13,"Both white and black faces",FALSE,FALSE
830748203,1,426,"primeRace","Race IAT","congruent","SCIAT first","female",46,13,"Both white and black faces",FALSE,FALSE
830748203,1,922,"primeRace","Race IAT","congruent","SCIAT first","female",46,13,"Both white and black faces",FALSE,FALSE
830748203,1,1444,"primeNeutral","Race IAT","congruent","SCIAT first","female",46,13,"Both white and black faces",FALSE,FALSE
830748203,1,412,"primeRace","Race IAT","congruent","SCIAT first","female",46,13,"Both white and black faces",FALSE,FALSE
830748203,1,515,"primeRace","Race IAT","congruent","SCIAT first","female",46,13,"Both white and black faces",FALSE,FALSE
830748203,1,517,"primeNeutral","Race IAT","congruent","SCIAT first","female",46,13,"Both white and black faces",FALSE,FALSE
830748203,1,560,"primeRace","Race IAT","congruent","SCIAT first","female",46,13,"Both white and black faces",FALSE,FALSE
830748203,1,374,"primeNeutral","Race IAT","congruent","SCIAT first","female",46,13,"Both white and black faces",FALSE,FALSE
830748203,1,824,"primeRace","Race IAT","congruent","SCIAT first","female",46,13,"Both white and black faces",FALSE,FALSE
830748203,1,508,"primeNeutral","Race IAT","congruent","SCIAT first","female",46,13,"Both white and black faces",FALSE,FALSE
830748203,1,481,"primeRace","Race IAT","congruent","SCIAT first","female",46,13,"Both white and black faces",FALSE,FALSE
830748203,1,541,"primeNeutral","Race IAT","congruent","SCIAT first","female",46,13,"Both white and black faces",FALSE,FALSE
830748203,1,360,"primeRace","Race IAT","congruent","SCIAT first","female",46,13,"Both white and black faces",FALSE,FALSE
830748203,1,867,"primeNeutral","Race IAT","congruent","SCIAT first","female",46,13,"Both white and black faces",FALSE,FALSE
830748203,1,980,"primeNeutral","Race IAT","congruent","SCIAT first","female",46,13,"Both white and black faces",FALSE,FALSE
830748203,1,324,"primeRace","Race IAT","congruent","SCIAT first","female",46,13,"Both white and black faces",FALSE,FALSE
830748203,1,1614,"primeNeutral","Race IAT","congruent","SCIAT first","female",46,13,"Both white and black faces",FALSE,FALSE
830748203,1,350,"primeNeutral","Race IAT","congruent","SCIAT first","female",46,13,"Both white and black faces",FALSE,FALSE
830748203,1,303,"primeRace","Race IAT","congruent","SCIAT first","female",46,13,"Both white and black faces",FALSE,FALSE
830748203,1,1370,"primeNeutral","Race IAT","congruent","SCIAT first","female",46,13,"Both white and black faces",FALSE,FALSE
830748203,1,245,"primeRace","Race IAT","congruent","SCIAT first","female",46,13,"Both white and black faces",FALSE,FALSE
830748203,1,254,"primeRace","Race IAT","congruent","SCIAT first","female",46,13,"Both white and black faces",FALSE,FALSE
830748203,1,243,"primeNeutral","Race IAT","congruent","SCIAT first","female",46,13,"Both white and black faces",FALSE,FALSE
830748203,1,379,"primeNeutral","Race IAT","congruent","SCIAT first","female",46,13,"Both white and black faces",FALSE,FALSE
830748203,1,504,"primeNeutral","Race IAT","congruent","SCIAT first","female",46,13,"Both white and black faces",FALSE,FALSE
830748203,1,433,"primeRace","Race IAT","congruent","SCIAT first","female",46,13,"Both white and black faces",FALSE,FALSE
830748203,1,473,"primeRace","Race IAT","congruent","SCIAT first","female",46,13,"Both white and black faces",FALSE,FALSE
830748203,1,365,"primeNeutral","Race IAT","congruent","SCIAT first","female",46,13,"Both white and black faces",FALSE,FALSE
830748203,1,326,"primeNeutral","Race IAT","congruent","SCIAT first","female",46,13,"Both white and black faces",FALSE,FALSE
830748203,1,450,"primeNeutral","Race IAT","congruent","SCIAT first","female",46,13,"Both white and black faces",FALSE,FALSE
830748203,1,265,"primeNeutral","Race IAT","congruent","SCIAT first","female",46,13,"Both white and black faces",FALSE,FALSE
830748203,1,728,"primeRace","Race IAT","congruent","SCIAT first","female",46,13,"Both white and black faces",FALSE,FALSE
830748203,1,438,"primeNeutral","Race IAT","congruent","SCIAT first","female",46,13,"Both white and black faces",FALSE,FALSE
830748203,1,702,"primeRace","Race IAT","congruent","SCIAT first","female",46,13,"Both white and black faces",FALSE,FALSE
830748203,1,660,"primeNeutral","Race IAT","congruent","SCIAT first","female",46,13,"Both white and black faces",FALSE,FALSE
830748203,1,1092,"primeNeutral","Race IAT","congruent","SCIAT first","female",46,13,"Both white and black faces",FALSE,FALSE
830748203,1,282,"primeRace","Race IAT","congruent","SCIAT first","female",46,13,"Both white and black faces",FALSE,FALSE
830748203,1,225,"primeRace","Race IAT","congruent","SCIAT first","female",46,13,"Both white and black faces",FALSE,FALSE
830748203,1,257,"primeNeutral","Race IAT","congruent","SCIAT first","female",46,13,"Both white and black faces",FALSE,FALSE
830748203,1,343,"primeNeutral","Race IAT","congruent","SCIAT first","female",46,13,"Both white and black faces",FALSE,FALSE
830748203,1,547,"primeRace","Race IAT","congruent","SCIAT first","female",46,13,"Both white and black faces",FALSE,FALSE
830748203,1,1209,"primeNeutral","Race IAT","congruent","SCIAT first","female",46,13,"Both white and black faces",FALSE,FALSE
830748203,1,273,"primeRace","Race IAT","congruent","SCIAT first","female",46,13,"Both white and black faces",FALSE,FALSE
830748203,1,275,"primeRace","Race IAT","congruent","SCIAT first","female",46,13,"Both white and black faces",FALSE,FALSE
830748203,1,860,"primeNeutral","Race IAT","congruent","SCIAT first","female",46,13,"Both white and black faces",FALSE,FALSE
830748203,1,1569,"primeRace","Race IAT","congruent","SCIAT first","female",46,13,"Both white and black faces",FALSE,FALSE
830748203,1,270,"primeNeutral","Race IAT","congruent","SCIAT first","female",46,13,"Both white and black faces",FALSE,FALSE
830748203,1,425,"primeNeutral","Race IAT","congruent","SCIAT first","female",46,13,"Both white and black faces",FALSE,FALSE
830748203,1,494,"primeNeutral","Race IAT","congruent","SCIAT first","female",46,13,"Both white and black faces",FALSE,FALSE
830748203,1,373,"primeRace","Race IAT","congruent","SCIAT first","female",46,13,"Both white and black faces",FALSE,FALSE
830748203,1,536,"primeRace","Race IAT","congruent","SCIAT first","female",46,13,"Both white and black faces",FALSE,FALSE
830748203,1,365,"primeNeutral","Race IAT","congruent","SCIAT first","female",46,13,"Both white and black faces",FALSE,FALSE
830748203,1,363,"primeRace","Race IAT","congruent","SCIAT first","female",46,13,"Both white and black faces",FALSE,FALSE
830748203,1,430,"primeNeutral","Race IAT","congruent","SCIAT first","female",46,13,"Both white and black faces",FALSE,FALSE
830748203,1,466,"primeNeutral","Race IAT","congruent","SCIAT first","female",46,13,"Both white and black faces",FALSE,FALSE
830748203,1,401,"primeRace","Race IAT","congruent","SCIAT first","female",46,13,"Both white and black faces",FALSE,FALSE
830748203,1,948,"primeNeutral","Race IAT","congruent","SCIAT first","female",46,13,"Both white and black faces",FALSE,FALSE
830748203,1,385,"primeRace","Race IAT","congruent","SCIAT first","female",46,13,"Both white and black faces",FALSE,FALSE
830748203,1,452,"primeRace","Race IAT","congruent","SCIAT first","female",46,13,"Both white and black faces",FALSE,FALSE
830748203,1,383,"primeRace","Race IAT","congruent","SCIAT first","female",46,13,"Both white and black faces",FALSE,FALSE
830748203,1,420,"primeNeutral","Race IAT","congruent","SCIAT first","female",46,13,"Both white and black faces",FALSE,FALSE
830748203,1,272,"primeNeutral","Race IAT","congruent","SCIAT first","female",46,13,"Both white and black faces",FALSE,FALSE
830748203,1,361,"primeRace","Race IAT","congruent","SCIAT first","female",46,13,"Both white and black faces",FALSE,FALSE
830748203,1,468,"primeNeutral","Race IAT","congruent","SCIAT first","female",46,13,"Both white and black faces",FALSE,FALSE
830748203,1,374,"primeRace","Race IAT","congruent","SCIAT first","female",46,13,"Both white and black faces",FALSE,FALSE
830748203,1,1025,"primeRace","Race IAT","congruent","SCIAT first","female",46,13,"Both white and black faces",FALSE,FALSE
830748203,1,2242,"primeNeutral","Race IAT","congruent","SCIAT first","female",46,13,"Both white and black faces",FALSE,FALSE
830748203,1,355,"primeRace","Race IAT","congruent","SCIAT first","female",46,13,"Both white and black faces",FALSE,FALSE
830748203,1,351,"primeRace","Race IAT","congruent","SCIAT first","female",46,13,"Both white and black faces",FALSE,FALSE
830748203,1,317,"primeNeutral","Race IAT","congruent","SCIAT first","female",46,13,"Both white and black faces",FALSE,FALSE
830748203,1,590,"primeRace","Race IAT","congruent","SCIAT first","female",46,13,"Both white and black faces",FALSE,FALSE
830748203,1,259,"primeNeutral","Race IAT","congruent","SCIAT first","female",46,13,"Both white and black faces",FALSE,FALSE
830748203,1,337,"primeRace","Race IAT","congruent","SCIAT first","female",46,13,"Both white and black faces",FALSE,FALSE
830748203,1,368,"primeNeutral","Race IAT","congruent","SCIAT first","female",46,13,"Both white and black faces",FALSE,FALSE
830748203,1,362,"primeRace","Race IAT","congruent","SCIAT first","female",46,13,"Both white and black faces",FALSE,FALSE
830748203,1,462,"primeRace","Race IAT","congruent","SCIAT first","female",46,13,"Both white and black faces",FALSE,FALSE
830748203,1,367,"primeRace","Race IAT","congruent","SCIAT first","female",46,13,"Both white and black faces",FALSE,FALSE
830748203,1,576,"primeNeutral","Race IAT","congruent","SCIAT first","female",46,13,"Both white and black faces",FALSE,FALSE
830748203,1,380,"primeNeutral","Race IAT","congruent","SCIAT first","female",46,13,"Both white and black faces",FALSE,FALSE
830748203,1,297,"primeNeutral","Race IAT","congruent","SCIAT first","female",46,13,"Both white and black faces",FALSE,FALSE
830748203,1,467,"primeNeutral","Race IAT","congruent","SCIAT first","female",46,13,"Both white and black faces",FALSE,FALSE
830748203,1,359,"primeRace","Race IAT","congruent","SCIAT first","female",46,13,"Both white and black faces",FALSE,FALSE
830748203,1,292,"primeRace","Race IAT","congruent","SCIAT first","female",46,13,"Both white and black faces",FALSE,FALSE
830748203,1,376,"primeNeutral","Race IAT","congruent","SCIAT first","female",46,13,"Both white and black faces",FALSE,FALSE
830748203,1,361,"primeRace","Race IAT","congruent","SCIAT first","female",46,13,"Both white and black faces",FALSE,FALSE
830748203,1,278,"primeRace","Race IAT","congruent","SCIAT first","female",46,13,"Both white and black faces",FALSE,FALSE
830748203,1,389,"primeRace","Race IAT","congruent","SCIAT first","female",46,13,"Both white and black faces",FALSE,FALSE
830748203,1,788,"primeRace","Race IAT","congruent","SCIAT first","female",46,13,"Both white and black faces",FALSE,FALSE
830748203,1,3399,"primeNeutral","Race IAT","congruent","SCIAT first","female",46,13,"Both white and black faces",FALSE,FALSE
830748203,1,309,"primeRace","Race IAT","congruent","SCIAT first","female",46,13,"Both white and black faces",FALSE,FALSE
830748203,1,74,"primeNeutral","Race IAT","congruent","SCIAT first","female",46,13,"Both white and black faces",FALSE,FALSE
830748203,1,179,"primeNeutral","Race IAT","congruent","SCIAT first","female",46,13,"Both white and black faces",FALSE,FALSE
830748203,1,228,"primeNeutral","Race IAT","congruent","SCIAT first","female",46,13,"Both white and black faces",FALSE,FALSE
830748203,1,209,"primeRace","Race IAT","congruent","SCIAT first","female",46,13,"Both white and black faces",FALSE,FALSE
231421624,1,971,"primeRace","Flowers-Insects IAT","incongruent","SCIAT first","male",47,34,"Only black faces",FALSE,FALSE
231421624,0,5867,"primeRace","Flowers-Insects IAT","incongruent","SCIAT first","male",47,34,"Only black faces",FALSE,FALSE
231421624,0,527,"primeNeutral","Flowers-Insects IAT","incongruent","SCIAT first","male",47,34,"Only black faces",FALSE,FALSE
231421624,1,384,"primeRace","Flowers-Insects IAT","incongruent","SCIAT first","male",47,34,"Only black faces",FALSE,FALSE
231421624,1,475,"primeNeutral","Flowers-Insects IAT","incongruent","SCIAT first","male",47,34,"Only black faces",FALSE,FALSE
231421624,0,637,"primeNeutral","Flowers-Insects IAT","incongruent","SCIAT first","male",47,34,"Only black faces",FALSE,FALSE
231421624,0,467,"primeRace","Flowers-Insects IAT","incongruent","SCIAT first","male",47,34,"Only black faces",FALSE,FALSE
231421624,1,594,"primeNeutral","Flowers-Insects IAT","incongruent","SCIAT first","male",47,34,"Only black faces",FALSE,FALSE
231421624,0,1057,"primeNeutral","Flowers-Insects IAT","incongruent","SCIAT first","male",47,34,"Only black faces",FALSE,FALSE
231421624,1,542,"primeRace","Flowers-Insects IAT","incongruent","SCIAT first","male",47,34,"Only black faces",FALSE,FALSE
231421624,1,355,"primeRace","Flowers-Insects IAT","incongruent","SCIAT first","male",47,34,"Only black faces",FALSE,FALSE
231421624,1,359,"primeRace","Flowers-Insects IAT","incongruent","SCIAT first","male",47,34,"Only black faces",FALSE,FALSE
231421624,1,460,"primeRace","Flowers-Insects IAT","incongruent","SCIAT first","male",47,34,"Only black faces",FALSE,FALSE
231421624,0,501,"primeNeutral","Flowers-Insects IAT","incongruent","SCIAT first","male",47,34,"Only black faces",FALSE,FALSE
231421624,0,1268,"primeNeutral","Flowers-Insects IAT","incongruent","SCIAT first","male",47,34,"Only black faces",FALSE,FALSE
231421624,1,258,"primeRace","Flowers-Insects IAT","incongruent","SCIAT first","male",47,34,"Only black faces",FALSE,FALSE
231421624,0,446,"primeNeutral","Flowers-Insects IAT","incongruent","SCIAT first","male",47,34,"Only black faces",FALSE,FALSE
231421624,0,914,"primeRace","Flowers-Insects IAT","incongruent","SCIAT first","male",47,34,"Only black faces",FALSE,FALSE
231421624,1,573,"primeNeutral","Flowers-Insects IAT","incongruent","SCIAT first","male",47,34,"Only black faces",FALSE,FALSE
231421624,1,4181,"primeRace","Flowers-Insects IAT","incongruent","SCIAT first","male",47,34,"Only black faces",FALSE,FALSE
231421624,1,208,"primeRace","Flowers-Insects IAT","incongruent","SCIAT first","male",47,34,"Only black faces",FALSE,FALSE
231421624,0,348,"primeNeutral","Flowers-Insects IAT","incongruent","SCIAT first","male",47,34,"Only black faces",FALSE,FALSE
231421624,0,428,"primeNeutral","Flowers-Insects IAT","incongruent","SCIAT first","male",47,34,"Only black faces",FALSE,FALSE
231421624,0,515,"primeNeutral","Flowers-Insects IAT","incongruent","SCIAT first","male",47,34,"Only black faces",FALSE,FALSE
231421624,0,437,"primeNeutral","Flowers-Insects IAT","incongruent","SCIAT first","male",47,34,"Only black faces",FALSE,FALSE
231421624,1,406,"primeRace","Flowers-Insects IAT","incongruent","SCIAT first","male",47,34,"Only black faces",FALSE,FALSE
231421624,0,609,"primeNeutral","Flowers-Insects IAT","incongruent","SCIAT first","male",47,34,"Only black faces",FALSE,FALSE
231421624,0,1100,"primeNeutral","Flowers-Insects IAT","incongruent","SCIAT first","male",47,34,"Only black faces",FALSE,FALSE
231421624,1,385,"primeRace","Flowers-Insects IAT","incongruent","SCIAT first","male",47,34,"Only black faces",FALSE,FALSE
231421624,0,997,"primeRace","Flowers-Insects IAT","incongruent","SCIAT first","male",47,34,"Only black faces",FALSE,FALSE
231421624,0,472,"primeNeutral","Flowers-Insects IAT","incongruent","SCIAT first","male",47,34,"Only black faces",FALSE,FALSE
231421624,1,222,"primeRace","Flowers-Insects IAT","incongruent","SCIAT first","male",47,34,"Only black faces",FALSE,FALSE
231421624,0,552,"primeNeutral","Flowers-Insects IAT","incongruent","SCIAT first","male",47,34,"Only black faces",FALSE,FALSE
231421624,1,457,"primeRace","Flowers-Insects IAT","incongruent","SCIAT first","male",47,34,"Only black faces",FALSE,FALSE
231421624,0,779,"primeRace","Flowers-Insects IAT","incongruent","SCIAT first","male",47,34,"Only black faces",FALSE,FALSE
231421624,0,1005,"primeNeutral","Flowers-Insects IAT","incongruent","SCIAT first","male",47,34,"Only black faces",FALSE,FALSE
231421624,0,465,"primeNeutral","Flowers-Insects IAT","incongruent","SCIAT first","male",47,34,"Only black faces",FALSE,FALSE
231421624,0,495,"primeNeutral","Flowers-Insects IAT","incongruent","SCIAT first","male",47,34,"Only black faces",FALSE,FALSE
231421624,1,507,"primeRace","Flowers-Insects IAT","incongruent","SCIAT first","male",47,34,"Only black faces",FALSE,FALSE
231421624,0,519,"primeNeutral","Flowers-Insects IAT","incongruent","SCIAT first","male",47,34,"Only black faces",FALSE,FALSE
231421624,0,450,"primeNeutral","Flowers-Insects IAT","incongruent","SCIAT first","male",47,34,"Only black faces",FALSE,FALSE
231421624,0,754,"primeNeutral","Flowers-Insects IAT","incongruent","SCIAT first","male",47,34,"Only black faces",FALSE,FALSE
231421624,1,481,"primeRace","Flowers-Insects IAT","incongruent","SCIAT first","male",47,34,"Only black faces",FALSE,FALSE
231421624,0,423,"primeNeutral","Flowers-Insects IAT","incongruent","SCIAT first","male",47,34,"Only black faces",FALSE,FALSE
231421624,1,513,"primeRace","Flowers-Insects IAT","incongruent","SCIAT first","male",47,34,"Only black faces",FALSE,FALSE
231421624,0,1133,"primeRace","Flowers-Insects IAT","incongruent","SCIAT first","male",47,34,"Only black faces",FALSE,FALSE
231421624,0,730,"primeNeutral","Flowers-Insects IAT","incongruent","SCIAT first","male",47,34,"Only black faces",FALSE,FALSE
231421624,0,426,"primeNeutral","Flowers-Insects IAT","incongruent","SCIAT first","male",47,34,"Only black faces",FALSE,FALSE
231421624,0,369,"primeNeutral","Flowers-Insects IAT","incongruent","SCIAT first","male",47,34,"Only black faces",FALSE,FALSE
231421624,1,468,"primeRace","Flowers-Insects IAT","incongruent","SCIAT first","male",47,34,"Only black faces",FALSE,FALSE
231421624,0,669,"primeNeutral","Flowers-Insects IAT","incongruent","SCIAT first","male",47,34,"Only black faces",FALSE,FALSE
231421624,0,849,"primeNeutral","Flowers-Insects IAT","incongruent","SCIAT first","male",47,34,"Only black faces",FALSE,FALSE
231421624,0,537,"primeNeutral","Flowers-Insects IAT","incongruent","SCIAT first","male",47,34,"Only black faces",FALSE,FALSE
231421624,1,282,"primeRace","Flowers-Insects IAT","incongruent","SCIAT first","male",47,34,"Only black faces",FALSE,FALSE
231421624,1,447,"primeRace","Flowers-Insects IAT","incongruent","SCIAT first","male",47,34,"Only black faces",FALSE,FALSE
231421624,0,359,"primeNeutral","Flowers-Insects IAT","incongruent","SCIAT first","male",47,34,"Only black faces",FALSE,FALSE
231421624,1,308,"primeRace","Flowers-Insects IAT","incongruent","SCIAT first","male",47,34,"Only black faces",FALSE,FALSE
231421624,0,540,"primeNeutral","Flowers-Insects IAT","incongruent","SCIAT first","male",47,34,"Only black faces",FALSE,FALSE
231421624,1,196,"primeRace","Flowers-Insects IAT","incongruent","SCIAT first","male",47,34,"Only black faces",FALSE,FALSE
231421624,0,460,"primeNeutral","Flowers-Insects IAT","incongruent","SCIAT first","male",47,34,"Only black faces",FALSE,FALSE
231421624,1,145,"primeRace","Flowers-Insects IAT","incongruent","SCIAT first","male",47,34,"Only black faces",FALSE,FALSE
231421624,0,420,"primeNeutral","Flowers-Insects IAT","incongruent","SCIAT first","male",47,34,"Only black faces",FALSE,FALSE
231421624,1,172,"primeRace","Flowers-Insects IAT","incongruent","SCIAT first","male",47,34,"Only black faces",FALSE,FALSE
231421624,1,562,"primeRace","Flowers-Insects IAT","incongruent","SCIAT first","male",47,34,"Only black faces",FALSE,FALSE
231421624,1,258,"primeRace","Flowers-Insects IAT","incongruent","SCIAT first","male",47,34,"Only black faces",FALSE,FALSE
231421624,0,421,"primeNeutral","Flowers-Insects IAT","incongruent","SCIAT first","male",47,34,"Only black faces",FALSE,FALSE
231421624,1,108,"primeRace","Flowers-Insects IAT","incongruent","SCIAT first","male",47,34,"Only black faces",FALSE,FALSE
231421624,0,665,"primeNeutral","Flowers-Insects IAT","incongruent","SCIAT first","male",47,34,"Only black faces",FALSE,FALSE
231421624,0,457,"primeNeutral","Flowers-Insects IAT","incongruent","SCIAT first","male",47,34,"Only black faces",FALSE,FALSE
231421624,1,383,"primeRace","Flowers-Insects IAT","incongruent","SCIAT first","male",47,34,"Only black faces",FALSE,FALSE
231421624,1,288,"primeRace","Flowers-Insects IAT","incongruent","SCIAT first","male",47,34,"Only black faces",FALSE,FALSE
231421624,1,126,"primeRace","Flowers-Insects IAT","incongruent","SCIAT first","male",47,34,"Only black faces",FALSE,FALSE
231421624,0,485,"primeNeutral","Flowers-Insects IAT","incongruent","SCIAT first","male",47,34,"Only black faces",FALSE,FALSE
231421624,0,574,"primeNeutral","Flowers-Insects IAT","incongruent","SCIAT first","male",47,34,"Only black faces",FALSE,FALSE
231421624,0,505,"primeNeutral","Flowers-Insects IAT","incongruent","SCIAT first","male",47,34,"Only black faces",FALSE,FALSE
231421624,1,141,"primeRace","Flowers-Insects IAT","incongruent","SCIAT first","male",47,34,"Only black faces",FALSE,FALSE
231421624,0,574,"primeNeutral","Flowers-Insects IAT","incongruent","SCIAT first","male",47,34,"Only black faces",FALSE,FALSE
231421624,0,451,"primeRace","Flowers-Insects IAT","incongruent","SCIAT first","male",47,34,"Only black faces",FALSE,FALSE
231421624,1,183,"primeRace","Flowers-Insects IAT","incongruent","SCIAT first","male",47,34,"Only black faces",FALSE,FALSE
231421624,0,817,"primeNeutral","Flowers-Insects IAT","incongruent","SCIAT first","male",47,34,"Only black faces",FALSE,FALSE
231421624,1,282,"primeRace","Flowers-Insects IAT","incongruent","SCIAT first","male",47,34,"Only black faces",FALSE,FALSE
231421624,0,304,"primeNeutral","Flowers-Insects IAT","incongruent","SCIAT first","male",47,34,"Only black faces",FALSE,FALSE
231421624,0,529,"primeNeutral","Flowers-Insects IAT","incongruent","SCIAT first","male",47,34,"Only black faces",FALSE,FALSE
231421624,1,163,"primeRace","Flowers-Insects IAT","incongruent","SCIAT first","male",47,34,"Only black faces",FALSE,FALSE
231421624,0,755,"primeRace","Flowers-Insects IAT","incongruent","SCIAT first","male",47,34,"Only black faces",FALSE,FALSE
231421624,1,429,"primeNeutral","Flowers-Insects IAT","incongruent","SCIAT first","male",47,34,"Only black faces",FALSE,FALSE
231421624,0,528,"primeRace","Flowers-Insects IAT","incongruent","SCIAT first","male",47,34,"Only black faces",FALSE,FALSE
231421624,1,364,"primeRace","Flowers-Insects IAT","incongruent","SCIAT first","male",47,34,"Only black faces",FALSE,FALSE
231421624,0,297,"primeNeutral","Flowers-Insects IAT","incongruent","SCIAT first","male",47,34,"Only black faces",FALSE,FALSE
231421624,1,242,"primeRace","Flowers-Insects IAT","incongruent","SCIAT first","male",47,34,"Only black faces",FALSE,FALSE
231421624,1,330,"primeRace","Flowers-Insects IAT","incongruent","SCIAT first","male",47,34,"Only black faces",FALSE,FALSE
231421624,1,231,"primeRace","Flowers-Insects IAT","incongruent","SCIAT first","male",47,34,"Only black faces",FALSE,FALSE
231421624,1,159,"primeRace","Flowers-Insects IAT","incongruent","SCIAT first","male",47,34,"Only black faces",FALSE,FALSE
231421624,0,447,"primeNeutral","Flowers-Insects IAT","incongruent","SCIAT first","male",47,34,"Only black faces",FALSE,FALSE
231421624,1,150,"primeRace","Flowers-Insects IAT","incongruent","SCIAT first","male",47,34,"Only black faces",FALSE,FALSE
231421624,0,493,"primeNeutral","Flowers-Insects IAT","incongruent","SCIAT first","male",47,34,"Only black faces",FALSE,FALSE
231421624,0,657,"primeNeutral","Flowers-Insects IAT","incongruent","SCIAT first","male",47,34,"Only black faces",FALSE,FALSE
231421624,1,318,"primeRace","Flowers-Insects IAT","incongruent","SCIAT first","male",47,34,"Only black faces",FALSE,FALSE
231421624,0,348,"primeNeutral","Flowers-Insects IAT","incongruent","SCIAT first","male",47,34,"Only black faces",FALSE,FALSE
231421624,1,219,"primeRace","Flowers-Insects IAT","incongruent","SCIAT first","male",47,34,"Only black faces",FALSE,FALSE
755961286,1,151,"primeRace","Flowers-Insects IAT","incongruent","ratings first","female",21,14,"Only black faces",FALSE,FALSE
755961286,1,190,"primeRace","Flowers-Insects IAT","incongruent","ratings first","female",21,14,"Only black faces",FALSE,FALSE
755961286,1,171,"primeRace","Flowers-Insects IAT","incongruent","ratings first","female",21,14,"Only black faces",FALSE,FALSE
755961286,1,241,"primeNeutral","Flowers-Insects IAT","incongruent","ratings first","female",21,14,"Only black faces",FALSE,FALSE
755961286,1,210,"primeRace","Flowers-Insects IAT","incongruent","ratings first","female",21,14,"Only black faces",FALSE,FALSE
755961286,1,143,"primeNeutral","Flowers-Insects IAT","incongruent","ratings first","female",21,14,"Only black faces",FALSE,FALSE
755961286,1,166,"primeRace","Flowers-Insects IAT","incongruent","ratings first","female",21,14,"Only black faces",FALSE,FALSE
755961286,1,202,"primeRace","Flowers-Insects IAT","incongruent","ratings first","female",21,14,"Only black faces",FALSE,FALSE
755961286,1,216,"primeRace","Flowers-Insects IAT","incongruent","ratings first","female",21,14,"Only black faces",FALSE,FALSE
755961286,1,220,"primeRace","Flowers-Insects IAT","incongruent","ratings first","female",21,14,"Only black faces",FALSE,FALSE
755961286,1,487,"primeRace","Flowers-Insects IAT","incongruent","ratings first","female",21,14,"Only black faces",FALSE,FALSE
755961286,1,215,"primeRace","Flowers-Insects IAT","incongruent","ratings first","female",21,14,"Only black faces",FALSE,FALSE
755961286,1,401,"primeNeutral","Flowers-Insects IAT","incongruent","ratings first","female",21,14,"Only black faces",FALSE,FALSE
755961286,1,383,"primeRace","Flowers-Insects IAT","incongruent","ratings first","female",21,14,"Only black faces",FALSE,FALSE
755961286,1,365,"primeNeutral","Flowers-Insects IAT","incongruent","ratings first","female",21,14,"Only black faces",FALSE,FALSE
755961286,1,203,"primeRace","Flowers-Insects IAT","incongruent","ratings first","female",21,14,"Only black faces",FALSE,FALSE
755961286,1,567,"primeNeutral","Flowers-Insects IAT","incongruent","ratings first","female",21,14,"Only black faces",FALSE,FALSE
755961286,1,331,"primeRace","Flowers-Insects IAT","incongruent","ratings first","female",21,14,"Only black faces",FALSE,FALSE
755961286,1,226,"primeNeutral","Flowers-Insects IAT","incongruent","ratings first","female",21,14,"Only black faces",FALSE,FALSE
755961286,1,311,"primeRace","Flowers-Insects IAT","incongruent","ratings first","female",21,14,"Only black faces",FALSE,FALSE
755961286,1,207,"primeRace","Flowers-Insects IAT","incongruent","ratings first","female",21,14,"Only black faces",FALSE,FALSE
755961286,1,154,"primeRace","Flowers-Insects IAT","incongruent","ratings first","female",21,14,"Only black faces",FALSE,FALSE
755961286,1,136,"primeRace","Flowers-Insects IAT","incongruent","ratings first","female",21,14,"Only black faces",FALSE,FALSE
755961286,1,191,"primeNeutral","Flowers-Insects IAT","incongruent","ratings first","female",21,14,"Only black faces",FALSE,FALSE
755961286,1,265,"primeRace","Flowers-Insects IAT","incongruent","ratings first","female",21,14,"Only black faces",FALSE,FALSE
755961286,1,173,"primeRace","Flowers-Insects IAT","incongruent","ratings first","female",21,14,"Only black faces",FALSE,FALSE
755961286,1,107,"primeRace","Flowers-Insects IAT","incongruent","ratings first","female",21,14,"Only black faces",FALSE,FALSE
755961286,1,129,"primeNeutral","Flowers-Insects IAT","incongruent","ratings first","female",21,14,"Only black faces",FALSE,FALSE
755961286,1,162,"primeRace","Flowers-Insects IAT","incongruent","ratings first","female",21,14,"Only black faces",FALSE,FALSE
755961286,1,320,"primeRace","Flowers-Insects IAT","incongruent","ratings first","female",21,14,"Only black faces",FALSE,FALSE
755961286,1,205,"primeNeutral","Flowers-Insects IAT","incongruent","ratings first","female",21,14,"Only black faces",FALSE,FALSE
755961286,1,227,"primeRace","Flowers-Insects IAT","incongruent","ratings first","female",21,14,"Only black faces",FALSE,FALSE
755961286,1,454,"primeRace","Flowers-Insects IAT","incongruent","ratings first","female",21,14,"Only black faces",FALSE,FALSE
755961286,1,1951,"primeRace","Flowers-Insects IAT","incongruent","ratings first","female",21,14,"Only black faces",FALSE,FALSE
755961286,1,2827,"primeRace","Flowers-Insects IAT","incongruent","ratings first","female",21,14,"Only black faces",FALSE,FALSE
755961286,1,739,"primeNeutral","Flowers-Insects IAT","incongruent","ratings first","female",21,14,"Only black faces",FALSE,FALSE
755961286,1,967,"primeRace","Flowers-Insects IAT","incongruent","ratings first","female",21,14,"Only black faces",FALSE,FALSE
755961286,1,173,"primeRace","Flowers-Insects IAT","incongruent","ratings first","female",21,14,"Only black faces",FALSE,FALSE
755961286,1,810,"primeRace","Flowers-Insects IAT","incongruent","ratings first","female",21,14,"Only black faces",FALSE,FALSE
755961286,1,124,"primeNeutral","Flowers-Insects IAT","incongruent","ratings first","female",21,14,"Only black faces",FALSE,FALSE
755961286,1,132,"primeNeutral","Flowers-Insects IAT","incongruent","ratings first","female",21,14,"Only black faces",FALSE,FALSE
755961286,1,229,"primeNeutral","Flowers-Insects IAT","incongruent","ratings first","female",21,14,"Only black faces",FALSE,FALSE
755961286,1,110,"primeNeutral","Flowers-Insects IAT","incongruent","ratings first","female",21,14,"Only black faces",FALSE,FALSE
755961286,1,96,"primeNeutral","Flowers-Insects IAT","incongruent","ratings first","female",21,14,"Only black faces",FALSE,FALSE
755961286,1,94,"primeNeutral","Flowers-Insects IAT","incongruent","ratings first","female",21,14,"Only black faces",FALSE,FALSE
755961286,1,531,"primeNeutral","Flowers-Insects IAT","incongruent","ratings first","female",21,14,"Only black faces",FALSE,FALSE
755961286,1,609,"primeNeutral","Flowers-Insects IAT","incongruent","ratings first","female",21,14,"Only black faces",FALSE,FALSE
755961286,1,548,"primeRace","Flowers-Insects IAT","incongruent","ratings first","female",21,14,"Only black faces",FALSE,FALSE
755961286,1,161,"primeRace","Flowers-Insects IAT","incongruent","ratings first","female",21,14,"Only black faces",FALSE,FALSE
755961286,1,14,"primeNeutral","Flowers-Insects IAT","incongruent","ratings first","female",21,14,"Only black faces",FALSE,FALSE
755961286,1,178,"primeNeutral","Flowers-Insects IAT","incongruent","ratings first","female",21,14,"Only black faces",FALSE,FALSE
755961286,1,17,"primeRace","Flowers-Insects IAT","incongruent","ratings first","female",21,14,"Only black faces",FALSE,FALSE
755961286,1,1054,"primeRace","Flowers-Insects IAT","incongruent","ratings first","female",21,14,"Only black faces",FALSE,FALSE
755961286,1,622,"primeNeutral","Flowers-Insects IAT","incongruent","ratings first","female",21,14,"Only black faces",FALSE,FALSE
755961286,1,752,"primeRace","Flowers-Insects IAT","incongruent","ratings first","female",21,14,"Only black faces",FALSE,FALSE
755961286,1,373,"primeNeutral","Flowers-Insects IAT","incongruent","ratings first","female",21,14,"Only black faces",FALSE,FALSE
755961286,1,3282,"primeRace","Flowers-Insects IAT","incongruent","ratings first","female",21,14,"Only black faces",FALSE,FALSE
755961286,1,153,"primeNeutral","Flowers-Insects IAT","incongruent","ratings first","female",21,14,"Only black faces",FALSE,FALSE
755961286,1,505,"primeNeutral","Flowers-Insects IAT","incongruent","ratings first","female",21,14,"Only black faces",FALSE,FALSE
755961286,1,783,"primeRace","Flowers-Insects IAT","incongruent","ratings first","female",21,14,"Only black faces",FALSE,FALSE
755961286,1,235,"primeNeutral","Flowers-Insects IAT","incongruent","ratings first","female",21,14,"Only black faces",FALSE,FALSE
755961286,1,198,"primeRace","Flowers-Insects IAT","incongruent","ratings first","female",21,14,"Only black faces",FALSE,FALSE
755961286,1,203,"primeNeutral","Flowers-Insects IAT","incongruent","ratings first","female",21,14,"Only black faces",FALSE,FALSE
755961286,1,109,"primeRace","Flowers-Insects IAT","incongruent","ratings first","female",21,14,"Only black faces",FALSE,FALSE
755961286,1,358,"primeRace","Flowers-Insects IAT","incongruent","ratings first","female",21,14,"Only black faces",FALSE,FALSE
755961286,1,1292,"primeNeutral","Flowers-Insects IAT","incongruent","ratings first","female",21,14,"Only black faces",FALSE,FALSE
755961286,1,187,"primeNeutral","Flowers-Insects IAT","incongruent","ratings first","female",21,14,"Only black faces",FALSE,FALSE
755961286,1,656,"primeNeutral","Flowers-Insects IAT","incongruent","ratings first","female",21,14,"Only black faces",FALSE,FALSE
755961286,1,711,"primeNeutral","Flowers-Insects IAT","incongruent","ratings first","female",21,14,"Only black faces",FALSE,FALSE
755961286,1,423,"primeNeutral","Flowers-Insects IAT","incongruent","ratings first","female",21,14,"Only black faces",FALSE,FALSE
755961286,1,252,"primeNeutral","Flowers-Insects IAT","incongruent","ratings first","female",21,14,"Only black faces",FALSE,FALSE
755961286,1,199,"primeNeutral","Flowers-Insects IAT","incongruent","ratings first","female",21,14,"Only black faces",FALSE,FALSE
755961286,1,195,"primeNeutral","Flowers-Insects IAT","incongruent","ratings first","female",21,14,"Only black faces",FALSE,FALSE
755961286,1,584,"primeNeutral","Flowers-Insects IAT","incongruent","ratings first","female",21,14,"Only black faces",FALSE,FALSE
755961286,1,380,"primeNeutral","Flowers-Insects IAT","incongruent","ratings first","female",21,14,"Only black faces",FALSE,FALSE
755961286,1,1417,"primeRace","Flowers-Insects IAT","incongruent","ratings first","female",21,14,"Only black faces",FALSE,FALSE
755961286,1,195,"primeRace","Flowers-Insects IAT","incongruent","ratings first","female",21,14,"Only black faces",FALSE,FALSE
755961286,1,198,"primeNeutral","Flowers-Insects IAT","incongruent","ratings first","female",21,14,"Only black faces",FALSE,FALSE
755961286,1,556,"primeRace","Flowers-Insects IAT","incongruent","ratings first","female",21,14,"Only black faces",FALSE,FALSE
755961286,1,207,"primeNeutral","Flowers-Insects IAT","incongruent","ratings first","female",21,14,"Only black faces",FALSE,FALSE
755961286,1,139,"primeNeutral","Flowers-Insects IAT","incongruent","ratings first","female",21,14,"Only black faces",FALSE,FALSE
755961286,1,315,"primeRace","Flowers-Insects IAT","incongruent","ratings first","female",21,14,"Only black faces",FALSE,FALSE
755961286,1,228,"primeRace","Flowers-Insects IAT","incongruent","ratings first","female",21,14,"Only black faces",FALSE,FALSE
755961286,1,246,"primeNeutral","Flowers-Insects IAT","incongruent","ratings first","female",21,14,"Only black faces",FALSE,FALSE
755961286,1,193,"primeRace","Flowers-Insects IAT","incongruent","ratings first","female",21,14,"Only black faces",FALSE,FALSE
755961286,1,190,"primeNeutral","Flowers-Insects IAT","incongruent","ratings first","female",21,14,"Only black faces",FALSE,FALSE
755961286,1,355,"primeNeutral","Flowers-Insects IAT","incongruent","ratings first","female",21,14,"Only black faces",FALSE,FALSE
755961286,1,207,"primeNeutral","Flowers-Insects IAT","incongruent","ratings first","female",21,14,"Only black faces",FALSE,FALSE
755961286,1,266,"primeNeutral","Flowers-Insects IAT","incongruent","ratings first","female",21,14,"Only black faces",FALSE,FALSE
755961286,1,398,"primeNeutral","Flowers-Insects IAT","incongruent","ratings first","female",21,14,"Only black faces",FALSE,FALSE
755961286,1,290,"primeNeutral","Flowers-Insects IAT","incongruent","ratings first","female",21,14,"Only black faces",FALSE,FALSE
755961286,1,321,"primeNeutral","Flowers-Insects IAT","incongruent","ratings first","female",21,14,"Only black faces",FALSE,FALSE
755961286,1,306,"primeRace","Flowers-Insects IAT","incongruent","ratings first","female",21,14,"Only black faces",FALSE,FALSE
755961286,1,354,"primeRace","Flowers-Insects IAT","incongruent","ratings first","female",21,14,"Only black faces",FALSE,FALSE
755961286,1,270,"primeRace","Flowers-Insects IAT","incongruent","ratings first","female",21,14,"Only black faces",FALSE,FALSE
755961286,1,336,"primeNeutral","Flowers-Insects IAT","incongruent","ratings first","female",21,14,"Only black faces",FALSE,FALSE
755961286,1,270,"primeRace","Flowers-Insects IAT","incongruent","ratings first","female",21,14,"Only black faces",FALSE,FALSE
755961286,1,329,"primeRace","Flowers-Insects IAT","incongruent","ratings first","female",21,14,"Only black faces",FALSE,FALSE
755961286,1,2304,"primeNeutral","Flowers-Insects IAT","incongruent","ratings first","female",21,14,"Only black faces",FALSE,FALSE
755961286,1,1380,"primeNeutral","Flowers-Insects IAT","incongruent","ratings first","female",21,14,"Only black faces",FALSE,FALSE
442057301,1,582,"primeNeutral","Flowers-Insects IAT","congruent","ratings first","male",30,17,"Only black faces",FALSE,FALSE
442057301,1,592,"primeNeutral","Flowers-Insects IAT","congruent","ratings first","male",30,17,"Only black faces",FALSE,FALSE
442057301,1,584,"primeNeutral","Flowers-Insects IAT","congruent","ratings first","male",30,17,"Only black faces",FALSE,FALSE
442057301,1,655,"primeNeutral","Flowers-Insects IAT","congruent","ratings first","male",30,17,"Only black faces",FALSE,FALSE
442057301,1,745,"primeRace","Flowers-Insects IAT","congruent","ratings first","male",30,17,"Only black faces",FALSE,FALSE
442057301,0,606,"primeNeutral","Flowers-Insects IAT","congruent","ratings first","male",30,17,"Only black faces",FALSE,FALSE
442057301,0,612,"primeNeutral","Flowers-Insects IAT","congruent","ratings first","male",30,17,"Only black faces",FALSE,FALSE
442057301,1,493,"primeRace","Flowers-Insects IAT","congruent","ratings first","male",30,17,"Only black faces",FALSE,FALSE
442057301,0,526,"primeNeutral","Flowers-Insects IAT","congruent","ratings first","male",30,17,"Only black faces",FALSE,FALSE
442057301,1,524,"primeRace","Flowers-Insects IAT","congruent","ratings first","male",30,17,"Only black faces",FALSE,FALSE
442057301,1,627,"primeNeutral","Flowers-Insects IAT","congruent","ratings first","male",30,17,"Only black faces",FALSE,FALSE
442057301,1,585,"primeNeutral","Flowers-Insects IAT","congruent","ratings first","male",30,17,"Only black faces",FALSE,FALSE
442057301,1,733,"primeRace","Flowers-Insects IAT","congruent","ratings first","male",30,17,"Only black faces",FALSE,FALSE
442057301,0,727,"primeRace","Flowers-Insects IAT","congruent","ratings first","male",30,17,"Only black faces",FALSE,FALSE
442057301,0,733,"primeRace","Flowers-Insects IAT","congruent","ratings first","male",30,17,"Only black faces",FALSE,FALSE
442057301,1,580,"primeRace","Flowers-Insects IAT","congruent","ratings first","male",30,17,"Only black faces",FALSE,FALSE
442057301,1,377,"primeNeutral","Flowers-Insects IAT","congruent","ratings first","male",30,17,"Only black faces",FALSE,FALSE
442057301,1,378,"primeNeutral","Flowers-Insects IAT","congruent","ratings first","male",30,17,"Only black faces",FALSE,FALSE
442057301,0,408,"primeNeutral","Flowers-Insects IAT","congruent","ratings first","male",30,17,"Only black faces",FALSE,FALSE
442057301,1,371,"primeRace","Flowers-Insects IAT","congruent","ratings first","male",30,17,"Only black faces",FALSE,FALSE
442057301,1,378,"primeRace","Flowers-Insects IAT","congruent","ratings first","male",30,17,"Only black faces",FALSE,FALSE
442057301,1,470,"primeRace","Flowers-Insects IAT","congruent","ratings first","male",30,17,"Only black faces",FALSE,FALSE
442057301,0,635,"primeRace","Flowers-Insects IAT","congruent","ratings first","male",30,17,"Only black faces",FALSE,FALSE
442057301,1,420,"primeRace","Flowers-Insects IAT","congruent","ratings first","male",30,17,"Only black faces",FALSE,FALSE
442057301,1,408,"primeRace","Flowers-Insects IAT","congruent","ratings first","male",30,17,"Only black faces",FALSE,FALSE
442057301,1,768,"primeRace","Flowers-Insects IAT","congruent","ratings first","male",30,17,"Only black faces",FALSE,FALSE
442057301,1,578,"primeNeutral","Flowers-Insects IAT","congruent","ratings first","male",30,17,"Only black faces",FALSE,FALSE
442057301,0,754,"primeNeutral","Flowers-Insects IAT","congruent","ratings first","male",30,17,"Only black faces",FALSE,FALSE
442057301,1,1076,"primeNeutral","Flowers-Insects IAT","congruent","ratings first","male",30,17,"Only black faces",FALSE,FALSE
442057301,1,471,"primeNeutral","Flowers-Insects IAT","congruent","ratings first","male",30,17,"Only black faces",FALSE,FALSE
442057301,1,622,"primeRace","Flowers-Insects IAT","congruent","ratings first","male",30,17,"Only black faces",FALSE,FALSE
442057301,1,455,"primeNeutral","Flowers-Insects IAT","congruent","ratings first","male",30,17,"Only black faces",FALSE,FALSE
442057301,0,504,"primeNeutral","Flowers-Insects IAT","congruent","ratings first","male",30,17,"Only black faces",FALSE,FALSE
442057301,1,749,"primeNeutral","Flowers-Insects IAT","congruent","ratings first","male",30,17,"Only black faces",FALSE,FALSE
442057301,1,464,"primeRace","Flowers-Insects IAT","congruent","ratings first","male",30,17,"Only black faces",FALSE,FALSE
442057301,1,651,"primeNeutral","Flowers-Insects IAT","congruent","ratings first","male",30,17,"Only black faces",FALSE,FALSE
442057301,1,857,"primeRace","Flowers-Insects IAT","congruent","ratings first","male",30,17,"Only black faces",FALSE,FALSE
442057301,1,620,"primeRace","Flowers-Insects IAT","congruent","ratings first","male",30,17,"Only black faces",FALSE,FALSE
442057301,1,590,"primeRace","Flowers-Insects IAT","congruent","ratings first","male",30,17,"Only black faces",FALSE,FALSE
442057301,1,1377,"primeRace","Flowers-Insects IAT","congruent","ratings first","male",30,17,"Only black faces",FALSE,FALSE
442057301,0,456,"primeNeutral","Flowers-Insects IAT","congruent","ratings first","male",30,17,"Only black faces",FALSE,FALSE
442057301,1,551,"primeNeutral","Flowers-Insects IAT","congruent","ratings first","male",30,17,"Only black faces",FALSE,FALSE
442057301,0,727,"primeNeutral","Flowers-Insects IAT","congruent","ratings first","male",30,17,"Only black faces",FALSE,FALSE
442057301,1,755,"primeRace","Flowers-Insects IAT","congruent","ratings first","male",30,17,"Only black faces",FALSE,FALSE
442057301,0,605,"primeNeutral","Flowers-Insects IAT","congruent","ratings first","male",30,17,"Only black faces",FALSE,FALSE
442057301,1,460,"primeNeutral","Flowers-Insects IAT","congruent","ratings first","male",30,17,"Only black faces",FALSE,FALSE
442057301,1,427,"primeNeutral","Flowers-Insects IAT","congruent","ratings first","male",30,17,"Only black faces",FALSE,FALSE
442057301,1,713,"primeNeutral","Flowers-Insects IAT","congruent","ratings first","male",30,17,"Only black faces",FALSE,FALSE
442057301,1,423,"primeNeutral","Flowers-Insects IAT","congruent","ratings first","male",30,17,"Only black faces",FALSE,FALSE
442057301,1,412,"primeRace","Flowers-Insects IAT","congruent","ratings first","male",30,17,"Only black faces",FALSE,FALSE
442057301,1,572,"primeNeutral","Flowers-Insects IAT","congruent","ratings first","male",30,17,"Only black faces",FALSE,FALSE
442057301,1,344,"primeNeutral","Flowers-Insects IAT","congruent","ratings first","male",30,17,"Only black faces",FALSE,FALSE
442057301,1,485,"primeNeutral","Flowers-Insects IAT","congruent","ratings first","male",30,17,"Only black faces",FALSE,FALSE
442057301,0,520,"primeNeutral","Flowers-Insects IAT","congruent","ratings first","male",30,17,"Only black faces",FALSE,FALSE
442057301,1,371,"primeNeutral","Flowers-Insects IAT","congruent","ratings first","male",30,17,"Only black faces",FALSE,FALSE
442057301,1,435,"primeNeutral","Flowers-Insects IAT","congruent","ratings first","male",30,17,"Only black faces",FALSE,FALSE
442057301,1,358,"primeRace","Flowers-Insects IAT","congruent","ratings first","male",30,17,"Only black faces",FALSE,FALSE
442057301,1,625,"primeRace","Flowers-Insects IAT","congruent","ratings first","male",30,17,"Only black faces",FALSE,FALSE
442057301,0,765,"primeNeutral","Flowers-Insects IAT","congruent","ratings first","male",30,17,"Only black faces",FALSE,FALSE
442057301,1,364,"primeNeutral","Flowers-Insects IAT","congruent","ratings first","male",30,17,"Only black faces",FALSE,FALSE
442057301,0,334,"primeNeutral","Flowers-Insects IAT","congruent","ratings first","male",30,17,"Only black faces",FALSE,FALSE
442057301,1,563,"primeNeutral","Flowers-Insects IAT","congruent","ratings first","male",30,17,"Only black faces",FALSE,FALSE
442057301,1,292,"primeNeutral","Flowers-Insects IAT","congruent","ratings first","male",30,17,"Only black faces",FALSE,FALSE
442057301,1,370,"primeNeutral","Flowers-Insects IAT","congruent","ratings first","male",30,17,"Only black faces",FALSE,FALSE
442057301,1,399,"primeRace","Flowers-Insects IAT","congruent","ratings first","male",30,17,"Only black faces",FALSE,FALSE
442057301,1,349,"primeRace","Flowers-Insects IAT","congruent","ratings first","male",30,17,"Only black faces",FALSE,FALSE
442057301,1,404,"primeNeutral","Flowers-Insects IAT","congruent","ratings first","male",30,17,"Only black faces",FALSE,FALSE
442057301,1,439,"primeRace","Flowers-Insects IAT","congruent","ratings first","male",30,17,"Only black faces",FALSE,FALSE
442057301,1,464,"primeRace","Flowers-Insects IAT","congruent","ratings first","male",30,17,"Only black faces",FALSE,FALSE
442057301,0,444,"primeRace","Flowers-Insects IAT","congruent","ratings first","male",30,17,"Only black faces",FALSE,FALSE
442057301,0,1035,"primeRace","Flowers-Insects IAT","congruent","ratings first","male",30,17,"Only black faces",FALSE,FALSE
442057301,1,439,"primeRace","Flowers-Insects IAT","congruent","ratings first","male",30,17,"Only black faces",FALSE,FALSE
442057301,1,382,"primeRace","Flowers-Insects IAT","congruent","ratings first","male",30,17,"Only black faces",FALSE,FALSE
442057301,1,434,"primeRace","Flowers-Insects IAT","congruent","ratings first","male",30,17,"Only black faces",FALSE,FALSE
442057301,1,352,"primeRace","Flowers-Insects IAT","congruent","ratings first","male",30,17,"Only black faces",FALSE,FALSE
442057301,1,551,"primeNeutral","Flowers-Insects IAT","congruent","ratings first","male",30,17,"Only black faces",FALSE,FALSE
442057301,1,373,"primeNeutral","Flowers-Insects IAT","congruent","ratings first","male",30,17,"Only black faces",FALSE,FALSE
442057301,0,307,"primeRace","Flowers-Insects IAT","congruent","ratings first","male",30,17,"Only black faces",FALSE,FALSE
442057301,1,383,"primeNeutral","Flowers-Insects IAT","congruent","ratings first","male",30,17,"Only black faces",FALSE,FALSE
442057301,0,848,"primeNeutral","Flowers-Insects IAT","congruent","ratings first","male",30,17,"Only black faces",FALSE,FALSE
442057301,1,866,"primeRace","Flowers-Insects IAT","congruent","ratings first","male",30,17,"Only black faces",FALSE,FALSE
442057301,0,408,"primeNeutral","Flowers-Insects IAT","congruent","ratings first","male",30,17,"Only black faces",FALSE,FALSE
442057301,1,626,"primeRace","Flowers-Insects IAT","congruent","ratings first","male",30,17,"Only black faces",FALSE,FALSE
442057301,0,359,"primeRace","Flowers-Insects IAT","congruent","ratings first","male",30,17,"Only black faces",FALSE,FALSE
442057301,1,410,"primeNeutral","Flowers-Insects IAT","congruent","ratings first","male",30,17,"Only black faces",FALSE,FALSE
442057301,1,405,"primeRace","Flowers-Insects IAT","congruent","ratings first","male",30,17,"Only black faces",FALSE,FALSE
442057301,0,657,"primeRace","Flowers-Insects IAT","congruent","ratings first","male",30,17,"Only black faces",FALSE,FALSE
442057301,1,1407,"primeRace","Flowers-Insects IAT","congruent","ratings first","male",30,17,"Only black faces",FALSE,FALSE
442057301,1,1943,"primeRace","Flowers-Insects IAT","congruent","ratings first","male",30,17,"Only black faces",FALSE,FALSE
442057301,1,579,"primeRace","Flowers-Insects IAT","congruent","ratings first","male",30,17,"Only black faces",FALSE,FALSE
442057301,1,629,"primeNeutral","Flowers-Insects IAT","congruent","ratings first","male",30,17,"Only black faces",FALSE,FALSE
442057301,1,508,"primeRace","Flowers-Insects IAT","congruent","ratings first","male",30,17,"Only black faces",FALSE,FALSE
442057301,0,577,"primeRace","Flowers-Insects IAT","congruent","ratings first","male",30,17,"Only black faces",FALSE,FALSE
442057301,1,419,"primeRace","Flowers-Insects IAT","congruent","ratings first","male",30,17,"Only black faces",FALSE,FALSE
442057301,1,522,"primeNeutral","Flowers-Insects IAT","congruent","ratings first","male",30,17,"Only black faces",FALSE,FALSE
442057301,1,532,"primeNeutral","Flowers-Insects IAT","congruent","ratings first","male",30,17,"Only black faces",FALSE,FALSE
442057301,1,370,"primeRace","Flowers-Insects IAT","congruent","ratings first","male",30,17,"Only black faces",FALSE,FALSE
442057301,1,504,"primeRace","Flowers-Insects IAT","congruent","ratings first","male",30,17,"Only black faces",FALSE,FALSE
442057301,0,364,"primeRace","Flowers-Insects IAT","congruent","ratings first","male",30,17,"Only black faces",FALSE,FALSE
442057301,0,361,"primeRace","Flowers-Insects IAT","congruent","ratings first","male",30,17,"Only black faces",FALSE,FALSE
24129553,1,123,"primeRace","Race IAT","congruent","ratings first","male",29,11,"Only black faces",FALSE,FALSE
24129553,0,135,"primeNeutral","Race IAT","congruent","ratings first","male",29,11,"Only black faces",FALSE,FALSE
24129553,1,116,"primeRace","Race IAT","congruent","ratings first","male",29,11,"Only black faces",FALSE,FALSE
24129553,1,139,"primeRace","Race IAT","congruent","ratings first","male",29,11,"Only black faces",FALSE,FALSE
24129553,0,413,"primeNeutral","Race IAT","congruent","ratings first","male",29,11,"Only black faces",FALSE,FALSE
24129553,0,403,"primeNeutral","Race IAT","congruent","ratings first","male",29,11,"Only black faces",FALSE,FALSE
24129553,1,307,"primeRace","Race IAT","congruent","ratings first","male",29,11,"Only black faces",FALSE,FALSE
24129553,0,412,"primeNeutral","Race IAT","congruent","ratings first","male",29,11,"Only black faces",FALSE,FALSE
24129553,1,415,"primeRace","Race IAT","congruent","ratings first","male",29,11,"Only black faces",FALSE,FALSE
24129553,1,319,"primeRace","Race IAT","congruent","ratings first","male",29,11,"Only black faces",FALSE,FALSE
24129553,0,232,"primeRace","Race IAT","congruent","ratings first","male",29,11,"Only black faces",FALSE,FALSE
24129553,1,200,"primeNeutral","Race IAT","congruent","ratings first","male",29,11,"Only black faces",FALSE,FALSE
24129553,1,219,"primeRace","Race IAT","congruent","ratings first","male",29,11,"Only black faces",FALSE,FALSE
24129553,0,205,"primeRace","Race IAT","congruent","ratings first","male",29,11,"Only black faces",FALSE,FALSE
24129553,1,156,"primeRace","Race IAT","congruent","ratings first","male",29,11,"Only black faces",FALSE,FALSE
24129553,1,196,"primeRace","Race IAT","congruent","ratings first","male",29,11,"Only black faces",FALSE,FALSE
24129553,0,93,"primeRace","Race IAT","congruent","ratings first","male",29,11,"Only black faces",FALSE,FALSE
24129553,1,96,"primeRace","Race IAT","congruent","ratings first","male",29,11,"Only black faces",FALSE,FALSE
24129553,1,67,"primeRace","Race IAT","congruent","ratings first","male",29,11,"Only black faces",FALSE,FALSE
24129553,1,161,"primeRace","Race IAT","congruent","ratings first","male",29,11,"Only black faces",FALSE,FALSE
24129553,0,94,"primeNeutral","Race IAT","congruent","ratings first","male",29,11,"Only black faces",FALSE,FALSE
24129553,1,135,"primeNeutral","Race IAT","congruent","ratings first","male",29,11,"Only black faces",FALSE,FALSE
24129553,0,136,"primeRace","Race IAT","congruent","ratings first","male",29,11,"Only black faces",FALSE,FALSE
24129553,1,32,"primeNeutral","Race IAT","congruent","ratings first","male",29,11,"Only black faces",FALSE,FALSE
24129553,0,96,"primeRace","Race IAT","congruent","ratings first","male",29,11,"Only black faces",FALSE,FALSE
24129553,0,15,"primeRace","Race IAT","congruent","ratings first","male",29,11,"Only black faces",FALSE,FALSE
24129553,0,74,"primeNeutral","Race IAT","congruent","ratings first","male",29,11,"Only black faces",FALSE,FALSE
24129553,0,420,"primeRace","Race IAT","congruent","ratings first","male",29,11,"Only black faces",FALSE,FALSE
24129553,1,68,"primeRace","Race IAT","congruent","ratings first","male",29,11,"Only black faces",FALSE,FALSE
24129553,1,130,"primeNeutral","Race IAT","congruent","ratings first","male",29,11,"Only black faces",FALSE,FALSE
24129553,0,264,"primeNeutral","Race IAT","congruent","ratings first","male",29,11,"Only black faces",FALSE,FALSE
24129553,0,146,"primeRace","Race IAT","congruent","ratings first","male",29,11,"Only black faces",FALSE,FALSE
24129553,0,209,"primeNeutral","Race IAT","congruent","ratings first","male",29,11,"Only black faces",FALSE,FALSE
24129553,0,151,"primeRace","Race IAT","congruent","ratings first","male",29,11,"Only black faces",FALSE,FALSE
24129553,0,269,"primeNeutral","Race IAT","congruent","ratings first","male",29,11,"Only black faces",FALSE,FALSE
24129553,0,327,"primeNeutral","Race IAT","congruent","ratings first","male",29,11,"Only black faces",FALSE,FALSE
24129553,1,160,"primeNeutral","Race IAT","congruent","ratings first","male",29,11,"Only black faces",FALSE,FALSE
24129553,1,276,"primeNeutral","Race IAT","congruent","ratings first","male",29,11,"Only black faces",FALSE,FALSE
24129553,0,360,"primeNeutral","Race IAT","congruent","ratings first","male",29,11,"Only black faces",FALSE,FALSE
24129553,0,260,"primeRace","Race IAT","congruent","ratings first","male",29,11,"Only black faces",FALSE,FALSE
24129553,1,144,"primeRace","Race IAT","congruent","ratings first","male",29,11,"Only black faces",FALSE,FALSE
24129553,0,61,"primeNeutral","Race IAT","congruent","ratings first","male",29,11,"Only black faces",FALSE,FALSE
24129553,1,159,"primeRace","Race IAT","congruent","ratings first","male",29,11,"Only black faces",FALSE,FALSE
24129553,1,164,"primeNeutral","Race IAT","congruent","ratings first","male",29,11,"Only black faces",FALSE,FALSE
24129553,0,290,"primeRace","Race IAT","congruent","ratings first","male",29,11,"Only black faces",FALSE,FALSE
24129553,1,70,"primeNeutral","Race IAT","congruent","ratings first","male",29,11,"Only black faces",FALSE,FALSE
24129553,1,171,"primeRace","Race IAT","congruent","ratings first","male",29,11,"Only black faces",FALSE,FALSE
24129553,0,433,"primeRace","Race IAT","congruent","ratings first","male",29,11,"Only black faces",FALSE,FALSE
24129553,1,128,"primeRace","Race IAT","congruent","ratings first","male",29,11,"Only black faces",FALSE,FALSE
24129553,1,204,"primeRace","Race IAT","congruent","ratings first","male",29,11,"Only black faces",FALSE,FALSE
24129553,0,296,"primeRace","Race IAT","congruent","ratings first","male",29,11,"Only black faces",FALSE,FALSE
24129553,1,171,"primeNeutral","Race IAT","congruent","ratings first","male",29,11,"Only black faces",FALSE,FALSE
24129553,1,158,"primeNeutral","Race IAT","congruent","ratings first","male",29,11,"Only black faces",FALSE,FALSE
24129553,0,428,"primeNeutral","Race IAT","congruent","ratings first","male",29,11,"Only black faces",FALSE,FALSE
24129553,0,202,"primeRace","Race IAT","congruent","ratings first","male",29,11,"Only black faces",FALSE,FALSE
24129553,0,348,"primeRace","Race IAT","congruent","ratings first","male",29,11,"Only black faces",FALSE,FALSE
24129553,0,147,"primeNeutral","Race IAT","congruent","ratings first","male",29,11,"Only black faces",FALSE,FALSE
24129553,0,27,"primeNeutral","Race IAT","congruent","ratings first","male",29,11,"Only black faces",FALSE,FALSE
24129553,1,64,"primeRace","Race IAT","congruent","ratings first","male",29,11,"Only black faces",FALSE,FALSE
24129553,1,50,"primeRace","Race IAT","congruent","ratings first","male",29,11,"Only black faces",FALSE,FALSE
24129553,0,344,"primeRace","Race IAT","congruent","ratings first","male",29,11,"Only black faces",FALSE,FALSE
24129553,1,292,"primeNeutral","Race IAT","congruent","ratings first","male",29,11,"Only black faces",FALSE,FALSE
24129553,0,175,"primeNeutral","Race IAT","congruent","ratings first","male",29,11,"Only black faces",FALSE,FALSE
24129553,0,164,"primeRace","Race IAT","congruent","ratings first","male",29,11,"Only black faces",FALSE,FALSE
24129553,1,158,"primeNeutral","Race IAT","congruent","ratings first","male",29,11,"Only black faces",FALSE,FALSE
24129553,1,164,"primeNeutral","Race IAT","congruent","ratings first","male",29,11,"Only black faces",FALSE,FALSE
24129553,1,198,"primeNeutral","Race IAT","congruent","ratings first","male",29,11,"Only black faces",FALSE,FALSE
24129553,0,77,"primeNeutral","Race IAT","congruent","ratings first","male",29,11,"Only black faces",FALSE,FALSE
24129553,1,104,"primeRace","Race IAT","congruent","ratings first","male",29,11,"Only black faces",FALSE,FALSE
24129553,1,20,"primeNeutral","Race IAT","congruent","ratings first","male",29,11,"Only black faces",FALSE,FALSE
24129553,1,0,"primeRace","Race IAT","congruent","ratings first","male",29,11,"Only black faces",FALSE,FALSE
24129553,0,408,"primeNeutral","Race IAT","congruent","ratings first","male",29,11,"Only black faces",FALSE,FALSE
24129553,1,64,"primeNeutral","Race IAT","congruent","ratings first","male",29,11,"Only black faces",FALSE,FALSE
24129553,0,105,"primeRace","Race IAT","congruent","ratings first","male",29,11,"Only black faces",FALSE,FALSE
24129553,1,291,"primeNeutral","Race IAT","congruent","ratings first","male",29,11,"Only black faces",FALSE,FALSE
24129553,1,230,"primeRace","Race IAT","congruent","ratings first","male",29,11,"Only black faces",FALSE,FALSE
24129553,0,128,"primeNeutral","Race IAT","congruent","ratings first","male",29,11,"Only black faces",FALSE,FALSE
24129553,1,8,"primeNeutral","Race IAT","congruent","ratings first","male",29,11,"Only black faces",FALSE,FALSE
24129553,0,332,"primeRace","Race IAT","congruent","ratings first","male",29,11,"Only black faces",FALSE,FALSE
24129553,1,1764,"primeRace","Race IAT","congruent","ratings first","male",29,11,"Only black faces",FALSE,FALSE
24129553,1,124,"primeNeutral","Race IAT","congruent","ratings first","male",29,11,"Only black faces",FALSE,FALSE
24129553,1,156,"primeNeutral","Race IAT","congruent","ratings first","male",29,11,"Only black faces",FALSE,FALSE
24129553,1,152,"primeRace","Race IAT","congruent","ratings first","male",29,11,"Only black faces",FALSE,FALSE
24129553,1,196,"primeRace","Race IAT","congruent","ratings first","male",29,11,"Only black faces",FALSE,FALSE
24129553,1,315,"primeNeutral","Race IAT","congruent","ratings first","male",29,11,"Only black faces",FALSE,FALSE
24129553,0,99,"primeNeutral","Race IAT","congruent","ratings first","male",29,11,"Only black faces",FALSE,FALSE
24129553,1,4,"primeRace","Race IAT","congruent","ratings first","male",29,11,"Only black faces",FALSE,FALSE
24129553,1,544,"primeNeutral","Race IAT","congruent","ratings first","male",29,11,"Only black faces",FALSE,FALSE
24129553,0,184,"primeNeutral","Race IAT","congruent","ratings first","male",29,11,"Only black faces",FALSE,FALSE
24129553,1,100,"primeNeutral","Race IAT","congruent","ratings first","male",29,11,"Only black faces",FALSE,FALSE
24129553,0,188,"primeNeutral","Race IAT","congruent","ratings first","male",29,11,"Only black faces",FALSE,FALSE
24129553,1,147,"primeRace","Race IAT","congruent","ratings first","male",29,11,"Only black faces",FALSE,FALSE
24129553,1,93,"primeRace","Race IAT","congruent","ratings first","male",29,11,"Only black faces",FALSE,FALSE
24129553,1,920,"primeNeutral","Race IAT","congruent","ratings first","male",29,11,"Only black faces",FALSE,FALSE
24129553,0,296,"primeRace","Race IAT","congruent","ratings first","male",29,11,"Only black faces",FALSE,FALSE
24129553,1,194,"primeNeutral","Race IAT","congruent","ratings first","male",29,11,"Only black faces",FALSE,FALSE
24129553,0,223,"primeNeutral","Race IAT","congruent","ratings first","male",29,11,"Only black faces",FALSE,FALSE
24129553,1,633,"primeNeutral","Race IAT","congruent","ratings first","male",29,11,"Only black faces",FALSE,FALSE
24129553,1,1249,"primeNeutral","Race IAT","congruent","ratings first","male",29,11,"Only black faces",FALSE,FALSE
24129553,1,172,"primeRace","Race IAT","congruent","ratings first","male",29,11,"Only black faces",FALSE,FALSE
284817422,1,1295,"primeRace","Flowers-Insects IAT","incongruent","ratings first","female",22,12,"Both white and black faces",FALSE,FALSE
284817422,1,681,"primeNeutral","Flowers-Insects IAT","incongruent","ratings first","female",22,12,"Both white and black faces",FALSE,FALSE
284817422,0,500,"primeNeutral","Flowers-Insects IAT","incongruent","ratings first","female",22,12,"Both white and black faces",FALSE,FALSE
284817422,1,1054,"primeRace","Flowers-Insects IAT","incongruent","ratings first","female",22,12,"Both white and black faces",FALSE,FALSE
284817422,1,1546,"primeRace","Flowers-Insects IAT","incongruent","ratings first","female",22,12,"Both white and black faces",FALSE,FALSE
284817422,1,571,"primeRace","Flowers-Insects IAT","incongruent","ratings first","female",22,12,"Both white and black faces",FALSE,FALSE
284817422,0,502,"primeRace","Flowers-Insects IAT","incongruent","ratings first","female",22,12,"Both white and black faces",FALSE,FALSE
284817422,1,871,"primeNeutral","Flowers-Insects IAT","incongruent","ratings first","female",22,12,"Both white and black faces",FALSE,FALSE
284817422,1,2611,"primeNeutral","Flowers-Insects IAT","incongruent","ratings first","female",22,12,"Both white and black faces",FALSE,FALSE
284817422,0,957,"primeRace","Flowers-Insects IAT","incongruent","ratings first","female",22,12,"Both white and black faces",FALSE,FALSE
284817422,0,917,"primeNeutral","Flowers-Insects IAT","incongruent","ratings first","female",22,12,"Both white and black faces",FALSE,FALSE
284817422,1,694,"primeNeutral","Flowers-Insects IAT","incongruent","ratings first","female",22,12,"Both white and black faces",FALSE,FALSE
284817422,0,964,"primeRace","Flowers-Insects IAT","incongruent","ratings first","female",22,12,"Both white and black faces",FALSE,FALSE
284817422,1,524,"primeNeutral","Flowers-Insects IAT","incongruent","ratings first","female",22,12,"Both white and black faces",FALSE,FALSE
284817422,1,586,"primeNeutral","Flowers-Insects IAT","incongruent","ratings first","female",22,12,"Both white and black faces",FALSE,FALSE
284817422,0,520,"primeNeutral","Flowers-Insects IAT","incongruent","ratings first","female",22,12,"Both white and black faces",FALSE,FALSE
284817422,1,956,"primeRace","Flowers-Insects IAT","incongruent","ratings first","female",22,12,"Both white and black faces",FALSE,FALSE
284817422,0,612,"primeNeutral","Flowers-Insects IAT","incongruent","ratings first","female",22,12,"Both white and black faces",FALSE,FALSE
284817422,1,502,"primeNeutral","Flowers-Insects IAT","incongruent","ratings first","female",22,12,"Both white and black faces",FALSE,FALSE
284817422,1,480,"primeRace","Flowers-Insects IAT","incongruent","ratings first","female",22,12,"Both white and black faces",FALSE,FALSE
284817422,1,1798,"primeNeutral","Flowers-Insects IAT","incongruent","ratings first","female",22,12,"Both white and black faces",FALSE,FALSE
284817422,1,468,"primeNeutral","Flowers-Insects IAT","incongruent","ratings first","female",22,12,"Both white and black faces",FALSE,FALSE
284817422,0,408,"primeNeutral","Flowers-Insects IAT","incongruent","ratings first","female",22,12,"Both white and black faces",FALSE,FALSE
284817422,1,346,"primeNeutral","Flowers-Insects IAT","incongruent","ratings first","female",22,12,"Both white and black faces",FALSE,FALSE
284817422,1,394,"primeNeutral","Flowers-Insects IAT","incongruent","ratings first","female",22,12,"Both white and black faces",FALSE,FALSE
284817422,1,484,"primeNeutral","Flowers-Insects IAT","incongruent","ratings first","female",22,12,"Both white and black faces",FALSE,FALSE
284817422,0,1146,"primeRace","Flowers-Insects IAT","incongruent","ratings first","female",22,12,"Both white and black faces",FALSE,FALSE
284817422,1,783,"primeRace","Flowers-Insects IAT","incongruent","ratings first","female",22,12,"Both white and black faces",FALSE,FALSE
284817422,1,402,"primeNeutral","Flowers-Insects IAT","incongruent","ratings first","female",22,12,"Both white and black faces",FALSE,FALSE
284817422,0,947,"primeRace","Flowers-Insects IAT","incongruent","ratings first","female",22,12,"Both white and black faces",FALSE,FALSE
284817422,1,392,"primeNeutral","Flowers-Insects IAT","incongruent","ratings first","female",22,12,"Both white and black faces",FALSE,FALSE
284817422,1,839,"primeNeutral","Flowers-Insects IAT","incongruent","ratings first","female",22,12,"Both white and black faces",FALSE,FALSE
284817422,0,379,"primeNeutral","Flowers-Insects IAT","incongruent","ratings first","female",22,12,"Both white and black faces",FALSE,FALSE
284817422,1,674,"primeRace","Flowers-Insects IAT","incongruent","ratings first","female",22,12,"Both white and black faces",FALSE,FALSE
284817422,1,2053,"primeNeutral","Flowers-Insects IAT","incongruent","ratings first","female",22,12,"Both white and black faces",FALSE,FALSE
284817422,0,514,"primeRace","Flowers-Insects IAT","incongruent","ratings first","female",22,12,"Both white and black faces",FALSE,FALSE
284817422,1,436,"primeRace","Flowers-Insects IAT","incongruent","ratings first","female",22,12,"Both white and black faces",FALSE,FALSE
284817422,1,516,"primeRace","Flowers-Insects IAT","incongruent","ratings first","female",22,12,"Both white and black faces",FALSE,FALSE
284817422,0,526,"primeNeutral","Flowers-Insects IAT","incongruent","ratings first","female",22,12,"Both white and black faces",FALSE,FALSE
284817422,0,411,"primeNeutral","Flowers-Insects IAT","incongruent","ratings first","female",22,12,"Both white and black faces",FALSE,FALSE
284817422,0,364,"primeRace","Flowers-Insects IAT","incongruent","ratings first","female",22,12,"Both white and black faces",FALSE,FALSE
284817422,1,256,"primeNeutral","Flowers-Insects IAT","incongruent","ratings first","female",22,12,"Both white and black faces",FALSE,FALSE
284817422,1,484,"primeNeutral","Flowers-Insects IAT","incongruent","ratings first","female",22,12,"Both white and black faces",FALSE,FALSE
284817422,0,882,"primeNeutral","Flowers-Insects IAT","incongruent","ratings first","female",22,12,"Both white and black faces",FALSE,FALSE
284817422,1,532,"primeNeutral","Flowers-Insects IAT","incongruent","ratings first","female",22,12,"Both white and black faces",FALSE,FALSE
284817422,1,211,"primeRace","Flowers-Insects IAT","incongruent","ratings first","female",22,12,"Both white and black faces",FALSE,FALSE
284817422,1,895,"primeNeutral","Flowers-Insects IAT","incongruent","ratings first","female",22,12,"Both white and black faces",FALSE,FALSE
284817422,0,446,"primeRace","Flowers-Insects IAT","incongruent","ratings first","female",22,12,"Both white and black faces",FALSE,FALSE
284817422,1,686,"primeRace","Flowers-Insects IAT","incongruent","ratings first","female",22,12,"Both white and black faces",FALSE,FALSE
284817422,1,827,"primeRace","Flowers-Insects IAT","incongruent","ratings first","female",22,12,"Both white and black faces",FALSE,FALSE
284817422,1,437,"primeNeutral","Flowers-Insects IAT","incongruent","ratings first","female",22,12,"Both white and black faces",FALSE,FALSE
284817422,0,517,"primeRace","Flowers-Insects IAT","incongruent","ratings first","female",22,12,"Both white and black faces",FALSE,FALSE
284817422,1,975,"primeRace","Flowers-Insects IAT","incongruent","ratings first","female",22,12,"Both white and black faces",FALSE,FALSE
284817422,1,550,"primeNeutral","Flowers-Insects IAT","incongruent","ratings first","female",22,12,"Both white and black faces",FALSE,FALSE
284817422,1,1046,"primeNeutral","Flowers-Insects IAT","incongruent","ratings first","female",22,12,"Both white and black faces",FALSE,FALSE
284817422,0,1019,"primeRace","Flowers-Insects IAT","incongruent","ratings first","female",22,12,"Both white and black faces",FALSE,FALSE
284817422,1,1893,"primeNeutral","Flowers-Insects IAT","incongruent","ratings first","female",22,12,"Both white and black faces",FALSE,FALSE
284817422,1,579,"primeRace","Flowers-Insects IAT","incongruent","ratings first","female",22,12,"Both white and black faces",FALSE,FALSE
284817422,1,1223,"primeRace","Flowers-Insects IAT","incongruent","ratings first","female",22,12,"Both white and black faces",FALSE,FALSE
284817422,1,4013,"primeNeutral","Flowers-Insects IAT","incongruent","ratings first","female",22,12,"Both white and black faces",FALSE,FALSE
284817422,1,859,"primeRace","Flowers-Insects IAT","incongruent","ratings first","female",22,12,"Both white and black faces",FALSE,FALSE
284817422,0,1467,"primeNeutral","Flowers-Insects IAT","incongruent","ratings first","female",22,12,"Both white and black faces",FALSE,FALSE
284817422,0,743,"primeNeutral","Flowers-Insects IAT","incongruent","ratings first","female",22,12,"Both white and black faces",FALSE,FALSE
284817422,1,716,"primeRace","Flowers-Insects IAT","incongruent","ratings first","female",22,12,"Both white and black faces",FALSE,FALSE
284817422,1,1669,"primeRace","Flowers-Insects IAT","incongruent","ratings first","female",22,12,"Both white and black faces",FALSE,FALSE
284817422,1,640,"primeRace","Flowers-Insects IAT","incongruent","ratings first","female",22,12,"Both white and black faces",FALSE,FALSE
284817422,1,181,"primeRace","Flowers-Insects IAT","incongruent","ratings first","female",22,12,"Both white and black faces",FALSE,FALSE
284817422,1,500,"primeRace","Flowers-Insects IAT","incongruent","ratings first","female",22,12,"Both white and black faces",FALSE,FALSE
284817422,1,510,"primeNeutral","Flowers-Insects IAT","incongruent","ratings first","female",22,12,"Both white and black faces",FALSE,FALSE
284817422,0,400,"primeRace","Flowers-Insects IAT","incongruent","ratings first","female",22,12,"Both white and black faces",FALSE,FALSE
284817422,1,569,"primeNeutral","Flowers-Insects IAT","incongruent","ratings first","female",22,12,"Both white and black faces",FALSE,FALSE
284817422,1,613,"primeNeutral","Flowers-Insects IAT","incongruent","ratings first","female",22,12,"Both white and black faces",FALSE,FALSE
284817422,1,551,"primeRace","Flowers-Insects IAT","incongruent","ratings first","female",22,12,"Both white and black faces",FALSE,FALSE
284817422,1,991,"primeRace","Flowers-Insects IAT","incongruent","ratings first","female",22,12,"Both white and black faces",FALSE,FALSE
284817422,1,393,"primeRace","Flowers-Insects IAT","incongruent","ratings first","female",22,12,"Both white and black faces",FALSE,FALSE
284817422,1,1587,"primeRace","Flowers-Insects IAT","incongruent","ratings first","female",22,12,"Both white and black faces",FALSE,FALSE
284817422,0,474,"primeNeutral","Flowers-Insects IAT","incongruent","ratings first","female",22,12,"Both white and black faces",FALSE,FALSE
284817422,0,469,"primeRace","Flowers-Insects IAT","incongruent","ratings first","female",22,12,"Both white and black faces",FALSE,FALSE
284817422,0,665,"primeNeutral","Flowers-Insects IAT","incongruent","ratings first","female",22,12,"Both white and black faces",FALSE,FALSE
284817422,1,692,"primeNeutral","Flowers-Insects IAT","incongruent","ratings first","female",22,12,"Both white and black faces",FALSE,FALSE
284817422,1,386,"primeRace","Flowers-Insects IAT","incongruent","ratings first","female",22,12,"Both white and black faces",FALSE,FALSE
284817422,1,105,"primeRace","Flowers-Insects IAT","incongruent","ratings first","female",22,12,"Both white and black faces",FALSE,FALSE
284817422,1,397,"primeNeutral","Flowers-Insects IAT","incongruent","ratings first","female",22,12,"Both white and black faces",FALSE,FALSE
284817422,1,192,"primeRace","Flowers-Insects IAT","incongruent","ratings first","female",22,12,"Both white and black faces",FALSE,FALSE
284817422,0,298,"primeNeutral","Flowers-Insects IAT","incongruent","ratings first","female",22,12,"Both white and black faces",FALSE,FALSE
284817422,1,356,"primeRace","Flowers-Insects IAT","incongruent","ratings first","female",22,12,"Both white and black faces",FALSE,FALSE
284817422,1,352,"primeNeutral","Flowers-Insects IAT","incongruent","ratings first","female",22,12,"Both white and black faces",FALSE,FALSE
284817422,1,299,"primeRace","Flowers-Insects IAT","incongruent","ratings first","female",22,12,"Both white and black faces",FALSE,FALSE
284817422,1,300,"primeNeutral","Flowers-Insects IAT","incongruent","ratings first","female",22,12,"Both white and black faces",FALSE,FALSE
284817422,1,165,"primeRace","Flowers-Insects IAT","incongruent","ratings first","female",22,12,"Both white and black faces",FALSE,FALSE
284817422,1,238,"primeNeutral","Flowers-Insects IAT","incongruent","ratings first","female",22,12,"Both white and black faces",FALSE,FALSE
284817422,1,157,"primeRace","Flowers-Insects IAT","incongruent","ratings first","female",22,12,"Both white and black faces",FALSE,FALSE
284817422,1,386,"primeNeutral","Flowers-Insects IAT","incongruent","ratings first","female",22,12,"Both white and black faces",FALSE,FALSE
284817422,0,441,"primeRace","Flowers-Insects IAT","incongruent","ratings first","female",22,12,"Both white and black faces",FALSE,FALSE
284817422,1,377,"primeRace","Flowers-Insects IAT","incongruent","ratings first","female",22,12,"Both white and black faces",FALSE,FALSE
284817422,1,455,"primeRace","Flowers-Insects IAT","incongruent","ratings first","female",22,12,"Both white and black faces",FALSE,FALSE
284817422,0,274,"primeRace","Flowers-Insects IAT","incongruent","ratings first","female",22,12,"Both white and black faces",FALSE,FALSE
284817422,0,424,"primeRace","Flowers-Insects IAT","incongruent","ratings first","female",22,12,"Both white and black faces",FALSE,FALSE
284817422,1,653,"primeNeutral","Flowers-Insects IAT","incongruent","ratings first","female",22,12,"Both white and black faces",FALSE,FALSE
284817422,1,526,"primeNeutral","Flowers-Insects IAT","incongruent","ratings first","female",22,12,"Both white and black faces",FALSE,FALSE
213541838,1,1223,"primeRace","Flowers-Insects IAT","incongruent","ratings first","female",58,17,"Only black faces",FALSE,FALSE
213541838,0,1348,"primeNeutral","Flowers-Insects IAT","incongruent","ratings first","female",58,17,"Only black faces",FALSE,FALSE
213541838,0,1364,"primeRace","Flowers-Insects IAT","incongruent","ratings first","female",58,17,"Only black faces",FALSE,FALSE
213541838,1,1331,"primeRace","Flowers-Insects IAT","incongruent","ratings first","female",58,17,"Only black faces",FALSE,FALSE
213541838,1,804,"primeNeutral","Flowers-Insects IAT","incongruent","ratings first","female",58,17,"Only black faces",FALSE,FALSE
213541838,1,1161,"primeNeutral","Flowers-Insects IAT","incongruent","ratings first","female",58,17,"Only black faces",FALSE,FALSE
