"participant","complete","amp_recognition_response","gender","age","modern_racism_scale_total","mean_rating","IAT_mean_RT","IAT_perc_acc","IAT_exclude_based_on_fast_trials","AMP_mean_RT","AMP_perc_acc","AMP_neutral_perc_acc","AMP_race_perc_acc","AMP_diff","exclude","condition","IAT_condition","block_order","task_order"
2851922,TRUE,"Only black faces","female",37,16,6,1060,0.84,FALSE,512,0.95,1,0.9,-0.1,FALSE,2,"Race IAT","incongruent","ratings first"
4782910,TRUE,"Only black faces","male",38,17,4,916,0.99,FALSE,1012,0.8,0.78,0.82,0.0399999999999999,FALSE,6,"Flowers-Insects IAT","incongruent","ratings first"
7506370,TRUE,"Only black faces","male",50,17,4,767,1,FALSE,1104,0.59,0.62,0.56,-0.0599999999999999,FALSE,2,"Race IAT","incongruent","ratings first"
15307734,TRUE,"Only black faces","male",21,23,4,842,0.91,FALSE,620,0.59,0.6,0.58,-0.02,FALSE,6,"Flowers-Insects IAT","incongruent","ratings first"
17654798,TRUE,"Only black faces","female",44,19,3.67,921,0.98,FALSE,428,0.65,0.58,0.72,0.14,FALSE,6,"Flowers-Insects IAT","incongruent","ratings first"
18342555,TRUE,"Both white and black faces","male",50,12,4.83,700,0.89,FALSE,283,0.53,0.66,0.4,-0.26,FALSE,3,"Race IAT","congruent","SCIAT first"
24129553,TRUE,"Only black faces","male",29,11,4.83,734,0.85,FALSE,228,0.57,0.54,0.6,0.0599999999999999,FALSE,1,"Race IAT","congruent","ratings first"
32599867,TRUE,"Both white and black faces","female",53,13,5.17,758,0.99,FALSE,402,1,1,1,0,FALSE,3,"Race IAT","congruent","SCIAT first"
34085521,TRUE,"Both white and black faces","male",NA,30,4,1388,0.94,FALSE,945,0.48,0.68,0.28,-0.4,FALSE,1,"Race IAT","congruent","ratings first"
35155488,TRUE,"Only black faces","male",52,12,4,916,0.97,FALSE,443,0.6,0.56,0.64,0.08,FALSE,8,"Flowers-Insects IAT","incongruent","SCIAT first"
39832970,TRUE,"Both white and black faces","male",40,19,6,580,0.57,TRUE,127,0.5,0.52,0.48,-0.04,TRUE,2,"Race IAT","incongruent","ratings first"
39920667,TRUE,"Only black faces","male",24,22,3.67,994,0.9,FALSE,500,0.58,0.64,0.52,-0.12,FALSE,3,"Race IAT","congruent","SCIAT first"
42945811,TRUE,"Only black faces","male",18,15,4,754,0.95,FALSE,483,0.81,0.78,0.84,0.0599999999999999,FALSE,3,"Race IAT","congruent","SCIAT first"
44301785,TRUE,"Both white and black faces","female",60,19,4.5,1388,0.92,FALSE,579,0.83,0.76,0.9,0.14,FALSE,1,"Race IAT","congruent","ratings first"
44333375,TRUE,"Only black faces","male",24,20,4,714,0.86,FALSE,473,0.62,0.72,0.52,-0.2,FALSE,7,"Flowers-Insects IAT","congruent","SCIAT first"
46122356,TRUE,"I don't know","female",32,8,4,945,0.98,FALSE,1847,0,0,0,0,FALSE,4,"Race IAT","incongruent","SCIAT first"
47494535,TRUE,"Only black faces","female",51,19,4,676,0.92,FALSE,339,1,1,1,0,FALSE,7,"Flowers-Insects IAT","congruent","SCIAT first"
49810815,TRUE,"Only black faces","female",38,16,4,598,0.92,FALSE,283,0.81,0.62,1,0.38,FALSE,7,"Flowers-Insects IAT","congruent","SCIAT first"
52504693,FALSE,NA,NA,NA,NA,NA,NA,NA,NA,NA,NA,NA,NA,NA,TRUE,5,"Flowers-Insects IAT","congruent","ratings first"
53128596,TRUE,"Only black faces","female",26,15,4,823,1,FALSE,698,0.85,0.74,0.96,0.22,FALSE,4,"Race IAT","incongruent","SCIAT first"
63396024,TRUE,"Only black faces","female",54,13,6,1304,0.95,FALSE,1178,0.36,0.54,0.18,-0.36,FALSE,8,"Flowers-Insects IAT","incongruent","SCIAT first"
69472683,TRUE,"Only black faces","female",33,16,5.67,783,0.9,FALSE,707,0.65,0.56,0.74,0.18,FALSE,3,"Race IAT","congruent","SCIAT first"
72480024,TRUE,"Only black faces","female",43,13,4.5,1200,0.98,FALSE,1220,0.94,0.96,0.92,-0.0399999999999999,FALSE,8,"Flowers-Insects IAT","incongruent","SCIAT first"
76608862,FALSE,NA,NA,NA,NA,NA,NA,NA,NA,NA,NA,NA,NA,NA,TRUE,6,"Flowers-Insects IAT","incongruent","ratings first"
86938792,TRUE,"Only black faces","female",38,14,4.33,818,0.98,FALSE,567,1,1,1,0,FALSE,8,"Flowers-Insects IAT","incongruent","SCIAT first"
88378024,TRUE,"Only black faces","female",44,25,3.83,710,0.94,FALSE,185,0.78,0.8,0.76,-0.04,FALSE,8,"Flowers-Insects IAT","incongruent","SCIAT first"
95719706,TRUE,"Only black faces","male",27,13,4,1444,0.92,FALSE,809,0.51,0.94,0.08,-0.86,FALSE,2,"Race IAT","incongruent","ratings first"
101814106,TRUE,"Only black faces","female",28,11,4.5,909,0.92,FALSE,326,0.66,0.5,0.82,0.32,FALSE,2,"Race IAT","incongruent","ratings first"
106891760,TRUE,"Only black faces","female",38,17,4,1255,0.98,FALSE,536,0.58,0.56,0.6,0.0399999999999999,FALSE,8,"Flowers-Insects IAT","incongruent","SCIAT first"
112388191,TRUE,"Only black faces","female",61,18,4.67,977,1,FALSE,477,0.95,0.96,0.94,-0.02,FALSE,7,"Flowers-Insects IAT","congruent","SCIAT first"
116265055,TRUE,"Only black faces","male",28,14,5,934,0.97,FALSE,495,0.34,0.48,0.2,-0.28,FALSE,7,"Flowers-Insects IAT","congruent","SCIAT first"
117577909,TRUE,"I don't know","male",27,17,4.17,875,0.98,FALSE,703,0.5,0.94,0.06,-0.88,FALSE,5,"Flowers-Insects IAT","congruent","ratings first"
119258866,TRUE,"Only black faces","male",46,19,4.83,969,0.96,FALSE,526,0.5,0.56,0.44,-0.12,FALSE,2,"Race IAT","incongruent","ratings first"
121550054,TRUE,"Only black faces","female",28,18,4.67,732,0.96,FALSE,534,0.68,0.9,0.46,-0.44,FALSE,6,"Flowers-Insects IAT","incongruent","ratings first"
123554246,TRUE,"Only black faces","female",23,18,4.67,887,0.94,FALSE,362,0.7,0.42,0.98,0.56,FALSE,6,"Flowers-Insects IAT","incongruent","ratings first"
124394901,TRUE,"I don't know","male",20,27,4,725,0.98,FALSE,199,1,1,1,0,FALSE,5,"Flowers-Insects IAT","congruent","ratings first"
132134142,TRUE,"I don't know","female",29,14,4,1226,1,FALSE,1146,0.92,0.92,0.92,0,FALSE,6,"Flowers-Insects IAT","incongruent","ratings first"
135131748,TRUE,"Only black faces","male",23,13,4,689,0.92,FALSE,351,0.84,0.82,0.86,0.04,FALSE,4,"Race IAT","incongruent","SCIAT first"
136786391,TRUE,"Only black faces","female",42,22,4.17,970,1,FALSE,393,0.73,0.74,0.72,-0.02,FALSE,7,"Flowers-Insects IAT","congruent","SCIAT first"
136910715,TRUE,"Only black faces","male",43,26,4,1002,0.97,FALSE,428,0.61,0.64,0.58,-0.0600000000000001,FALSE,3,"Race IAT","congruent","SCIAT first"
137561087,FALSE,NA,NA,NA,NA,NA,NA,NA,NA,NA,NA,NA,NA,NA,TRUE,7,"Flowers-Insects IAT","congruent","SCIAT first"
142042644,TRUE,"Only black faces","female",34,22,5,924,0.97,FALSE,354,1,1,1,0,FALSE,4,"Race IAT","incongruent","SCIAT first"
143542488,TRUE,"Both white and black faces","male",44,17,4.33,846,0.99,FALSE,736,0.62,0.52,0.72,0.2,FALSE,8,"Flowers-Insects IAT","incongruent","SCIAT first"
145924742,TRUE,"Only black faces","female",21,14,4,817,0.98,FALSE,657,0.62,0.6,0.64,0.04,FALSE,6,"Flowers-Insects IAT","incongruent","ratings first"
147373664,TRUE,"I don't know","female",47,17,4,768,1,FALSE,762,0.45,0.46,0.44,-0.02,FALSE,8,"Flowers-Insects IAT","incongruent","SCIAT first"
156896642,TRUE,"Both white and black faces","female",44,18,4.33,796,0.94,FALSE,414,0.64,0.56,0.72,0.16,FALSE,2,"Race IAT","incongruent","ratings first"
157551057,TRUE,"Only black faces","female",24,10,4,708,0.92,FALSE,628,0.69,0.7,0.68,-0.0199999999999999,FALSE,1,"Race IAT","congruent","ratings first"
158632931,TRUE,"Both white and black faces","male",36,31,5,149,0.47,TRUE,760,0.55,0.54,0.56,0.02,TRUE,3,"Race IAT","congruent","SCIAT first"
158868420,TRUE,"I don't know","male",46,9,4.17,1092,0.98,FALSE,1026,0.66,0.7,0.62,-0.08,FALSE,4,"Race IAT","incongruent","SCIAT first"
164550743,TRUE,"I don't know","female",21,21,4.33,915,0.89,FALSE,266,0.98,0.96,1,0.04,FALSE,7,"Flowers-Insects IAT","congruent","SCIAT first"
166453206,TRUE,"I don't know","male",55,21,4.17,955,1,FALSE,1164,0.67,0.68,0.66,-0.02,FALSE,6,"Flowers-Insects IAT","incongruent","ratings first"
169448874,TRUE,"Only black faces","female",59,21,3.83,759,0.98,FALSE,403,0.93,0.96,0.9,-0.0599999999999999,FALSE,2,"Race IAT","incongruent","ratings first"
170187213,TRUE,"Both white and black faces","male",42,32,6,157,0.48,TRUE,79,0.59,0.5,0.68,0.18,TRUE,5,"Flowers-Insects IAT","congruent","ratings first"
170427007,TRUE,"Only black faces","female",44,15,4.5,660,0.98,FALSE,767,0.49,0.5,0.48,-0.02,FALSE,7,"Flowers-Insects IAT","congruent","SCIAT first"
170517619,TRUE,"I don't know","female",34,20,4.17,863,0.95,FALSE,458,0.39,0.52,0.26,-0.26,FALSE,3,"Race IAT","congruent","SCIAT first"
170728421,TRUE,"Only black faces","female",26,12,4.33,760,0.98,FALSE,663,0.76,0.8,0.72,-0.0800000000000001,FALSE,5,"Flowers-Insects IAT","congruent","ratings first"
173599777,TRUE,"Both white and black faces","female",31,13,4,1311,0.89,FALSE,660,0.52,0.52,0.52,0,FALSE,1,"Race IAT","congruent","ratings first"
177873328,TRUE,"Only black faces","female",52,19,4,1080,0.98,FALSE,347,0.94,0.9,0.98,0.08,FALSE,8,"Flowers-Insects IAT","incongruent","SCIAT first"
179396886,TRUE,"I don't know","female",20,21,4,967,0.89,FALSE,381,0.72,0.8,0.64,-0.16,FALSE,6,"Flowers-Insects IAT","incongruent","ratings first"
184209640,TRUE,"Only black faces","female",31,15,4.17,789,0.98,FALSE,511,0.99,0.98,1,0.02,FALSE,8,"Flowers-Insects IAT","incongruent","SCIAT first"
185393516,TRUE,"Only black faces","male",42,29,6,1673,0.9,FALSE,565,0.71,0.66,0.76,0.1,FALSE,4,"Race IAT","incongruent","SCIAT first"
186625632,TRUE,"Both white and black faces","male",34,18,4.5,864,0.97,FALSE,846,0.76,0.82,0.7,-0.12,FALSE,8,"Flowers-Insects IAT","incongruent","SCIAT first"
192468605,TRUE,"Only black faces","female",27,16,5.67,868,0.95,FALSE,391,0.99,1,0.98,-0.02,FALSE,5,"Flowers-Insects IAT","congruent","ratings first"
193965097,TRUE,"Only black faces","female",50,14,5,1190,0.99,FALSE,922,0.62,0.68,0.56,-0.12,FALSE,1,"Race IAT","congruent","ratings first"
197153490,TRUE,"I don't know","female",48,22,4,1067,0.99,FALSE,581,1,1,1,0,FALSE,2,"Race IAT","incongruent","ratings first"
203269528,TRUE,"Only black faces","male",57,18,3.67,870,0.99,FALSE,536,0.95,0.92,0.98,0.0599999999999999,FALSE,8,"Flowers-Insects IAT","incongruent","SCIAT first"
208045783,TRUE,"Only white faces","male",33,33,7,1363,0.48,TRUE,1250,0.56,0.52,0.6,0.08,TRUE,7,"Flowers-Insects IAT","congruent","SCIAT first"
209248199,TRUE,"Only black faces","male",18,21,3,942,0.96,FALSE,556,0.45,0.48,0.42,-0.06,FALSE,7,"Flowers-Insects IAT","congruent","SCIAT first"
209849636,TRUE,"Only black faces","female",62,22,4,976,0.92,FALSE,461,0.91,0.9,0.92,0.02,FALSE,4,"Race IAT","incongruent","SCIAT first"
213541838,TRUE,"Only black faces","female",58,17,4,830,0.97,FALSE,1139,0.56,0.52,0.6,0.08,FALSE,6,"Flowers-Insects IAT","incongruent","ratings first"
217157613,TRUE,"Only black faces","female",45,13,4,1140,0.82,FALSE,444,0.85,0.8,0.9,0.1,FALSE,5,"Flowers-Insects IAT","congruent","ratings first"
217879621,TRUE,"Only black faces","female",53,21,4.5,977,0.98,FALSE,651,0.5,0.44,0.56,0.12,FALSE,5,"Flowers-Insects IAT","congruent","ratings first"
223782864,TRUE,"Only black faces","male",24,22,2.83,771,0.96,FALSE,1463,0.36,0.48,0.24,-0.24,FALSE,8,"Flowers-Insects IAT","incongruent","SCIAT first"
225589697,TRUE,"Only black faces","male",34,11,4.33,1017,0.92,FALSE,533,0.56,0.58,0.54,-0.0399999999999999,FALSE,1,"Race IAT","congruent","ratings first"
229660102,TRUE,"Only black faces","male",33,22,4,703,0.9,FALSE,437,0.95,0.98,0.92,-0.0599999999999999,FALSE,6,"Flowers-Insects IAT","incongruent","ratings first"
231421624,TRUE,"Only black faces","male",47,34,6,1926,0.82,FALSE,571,0.45,0.08,0.82,0.74,FALSE,8,"Flowers-Insects IAT","incongruent","SCIAT first"
231468360,TRUE,"Only black faces","female",64,18,4.17,1094,0.99,FALSE,651,0.93,0.9,0.96,0.0599999999999999,FALSE,8,"Flowers-Insects IAT","incongruent","SCIAT first"
232322329,TRUE,"Only black faces","male",40,15,5,1027,0.97,FALSE,347,0.72,0.82,0.62,-0.2,FALSE,1,"Race IAT","congruent","ratings first"
233138542,TRUE,"Only black faces","male",18,16,4,873,0.92,FALSE,756,0.47,0.42,0.52,0.1,FALSE,6,"Flowers-Insects IAT","incongruent","ratings first"
236853641,TRUE,"Only black faces","male",38,16,5.67,816,0.98,FALSE,941,0.53,0.5,0.56,0.0600000000000001,FALSE,1,"Race IAT","congruent","ratings first"
236983681,FALSE,NA,NA,NA,NA,NA,NA,NA,NA,NA,NA,NA,NA,NA,TRUE,1,"Race IAT","congruent","ratings first"
242161283,TRUE,"I don't know","female",33,19,5,798,0.96,FALSE,511,0.82,0.78,0.86,0.08,FALSE,3,"Race IAT","congruent","SCIAT first"
243305644,TRUE,"Only black faces","female",44,14,6,855,0.96,FALSE,389,0.98,0.96,1,0.04,FALSE,4,"Race IAT","incongruent","SCIAT first"
243683755,TRUE,"Both white and black faces","male",20,12,4.67,891,0.95,FALSE,548,0.84,0.84,0.84,0,FALSE,3,"Race IAT","congruent","SCIAT first"
244725458,TRUE,"Only black faces","male",26,27,3.17,781,0.96,FALSE,338,0.54,1,0.08,-0.92,FALSE,2,"Race IAT","incongruent","ratings first"
245285388,TRUE,"Only black faces","female",23,16,6,855,0.98,FALSE,674,0.71,0.74,0.68,-0.0599999999999999,FALSE,4,"Race IAT","incongruent","SCIAT first"
263959953,TRUE,"Both white and black faces","male",40,10,4,776,1,FALSE,694,0.72,0.62,0.82,0.2,FALSE,1,"Race IAT","congruent","ratings first"
264311860,TRUE,"Only black faces","male",25,16,4,1185,0.99,FALSE,367,0.58,0.62,0.54,-0.08,FALSE,4,"Race IAT","incongruent","SCIAT first"
265294892,TRUE,"Only black faces","female",21,10,5.5,625,0.93,FALSE,544,0.89,0.92,0.86,-0.0600000000000001,FALSE,4,"Race IAT","incongruent","SCIAT first"
268217651,TRUE,"Both white and black faces","male",18,17,5,638,0.91,FALSE,554,0.51,0.56,0.46,-0.1,FALSE,3,"Race IAT","congruent","SCIAT first"
270390590,TRUE,"Only black faces","male",21,15,4,767,0.89,FALSE,746,0.62,0.62,0.62,0,FALSE,6,"Flowers-Insects IAT","incongruent","ratings first"
272952339,TRUE,"Only black faces","male",40,22,6,1529,0.79,FALSE,229,0.69,0.6,0.78,0.18,FALSE,3,"Race IAT","congruent","SCIAT first"
274851162,FALSE,NA,NA,NA,NA,NA,NA,NA,NA,NA,NA,NA,NA,NA,TRUE,2,"Race IAT","incongruent","ratings first"
275081757,TRUE,"I don't know","male",31,13,4.83,795,0.95,FALSE,391,1,1,1,0,FALSE,5,"Flowers-Insects IAT","congruent","ratings first"
275625584,TRUE,"Only black faces","female",25,11,5.33,716,0.97,FALSE,799,0.85,0.88,0.82,-0.0600000000000001,FALSE,8,"Flowers-Insects IAT","incongruent","SCIAT first"
277769444,TRUE,"Both white and black faces","male",40,22,5.33,343,0.45,TRUE,2486,0.38,0.44,0.32,-0.12,TRUE,4,"Race IAT","incongruent","SCIAT first"
278872382,TRUE,"Only black faces","female",40,13,4.5,875,0.97,FALSE,448,0.72,0.7,0.74,0.04,FALSE,6,"Flowers-Insects IAT","incongruent","ratings first"
284817422,TRUE,"Both white and black faces","female",22,12,4.5,645,0.87,FALSE,706,0.71,0.72,0.7,-0.02,FALSE,6,"Flowers-Insects IAT","incongruent","ratings first"
285780293,TRUE,"Only black faces","female",37,13,4.33,832,0.98,FALSE,697,0.6,0.68,0.52,-0.16,FALSE,5,"Flowers-Insects IAT","congruent","ratings first"
286215415,TRUE,"Both white and black faces","male",40,35,7,333,0.48,TRUE,124,0.58,0.58,0.58,0,TRUE,7,"Flowers-Insects IAT","congruent","SCIAT first"
291323111,TRUE,"Both white and black faces","male",56,16,4.17,759,0.98,FALSE,805,0.57,0.58,0.56,-0.0199999999999999,FALSE,7,"Flowers-Insects IAT","congruent","SCIAT first"
292775163,TRUE,"Only black faces","female",32,18,7,776,0.99,FALSE,383,0.52,0.14,0.9,0.76,FALSE,3,"Race IAT","congruent","SCIAT first"
293509812,TRUE,"I don't know","male",47,11,4.67,837,0.97,FALSE,665,0.76,0.78,0.74,-0.04,FALSE,4,"Race IAT","incongruent","SCIAT first"
295215975,TRUE,"Both white and black faces","male",24,23,4,852,0.79,FALSE,543,0.59,0.64,0.54,-0.1,FALSE,7,"Flowers-Insects IAT","congruent","SCIAT first"
297379570,TRUE,"Only black faces","female",54,13,4,647,0.94,FALSE,480,0.79,0.76,0.82,0.0599999999999999,FALSE,2,"Race IAT","incongruent","ratings first"
299510817,TRUE,"Only black faces","male",52,25,3.67,978,0.97,FALSE,1722,0.72,0.84,0.6,-0.24,FALSE,1,"Race IAT","congruent","ratings first"
301062341,TRUE,"Only black faces","female",39,15,4.33,885,0.94,FALSE,424,0.7,0.66,0.74,0.08,FALSE,5,"Flowers-Insects IAT","congruent","ratings first"
301126861,TRUE,"Only black faces","male",35,12,5.67,994,0.95,FALSE,943,0.74,0.76,0.72,-0.04,FALSE,5,"Flowers-Insects IAT","congruent","ratings first"
301636904,TRUE,"Both white and black faces","female",18,16,3.83,811,0.96,FALSE,790,0.74,0.84,0.64,-0.2,FALSE,8,"Flowers-Insects IAT","incongruent","SCIAT first"
303695708,TRUE,"Both white and black faces","female",30,23,4.67,787,0.95,FALSE,546,0.8,0.74,0.86,0.12,FALSE,4,"Race IAT","incongruent","SCIAT first"
304170822,TRUE,"Only black faces","male",27,15,4.5,906,0.9,FALSE,701,0.65,0.6,0.7,0.1,FALSE,6,"Flowers-Insects IAT","incongruent","ratings first"
308076154,TRUE,"I don't know","male",39,19,4.67,1324,0.95,FALSE,663,0.27,0.36,0.18,-0.18,FALSE,2,"Race IAT","incongruent","ratings first"
308675497,TRUE,"Only black faces","female",21,19,6,850,0.93,FALSE,307,0.9,0.88,0.92,0.04,FALSE,1,"Race IAT","congruent","ratings first"
310573074,TRUE,"Only black faces","female",44,15,4,925,0.99,FALSE,306,1,1,1,0,FALSE,2,"Race IAT","incongruent","ratings first"
312881666,TRUE,"Only black faces","female",28,15,4,753,0.99,FALSE,529,0.53,0.44,0.62,0.18,FALSE,2,"Race IAT","incongruent","ratings first"
313078267,TRUE,"Only black faces","male",22,17,4,823,0.92,FALSE,426,0.8,0.86,0.74,-0.12,FALSE,3,"Race IAT","congruent","SCIAT first"
318408013,TRUE,"Only black faces","male",19,20,4,764,0.98,FALSE,638,0.79,0.7,0.88,0.18,FALSE,5,"Flowers-Insects IAT","congruent","ratings first"
333916318,TRUE,"Only black faces","male",36,15,4.5,794,0.93,FALSE,814,0.68,0.74,0.62,-0.12,FALSE,6,"Flowers-Insects IAT","incongruent","ratings first"
334319290,TRUE,"Both white and black faces","male",41,26,6.33,1561,0.93,FALSE,768,0.62,0.44,0.8,0.36,FALSE,2,"Race IAT","incongruent","ratings first"
335414447,TRUE,"Both white and black faces","male",21,17,4,670,0.89,FALSE,258,0.82,0.7,0.94,0.24,FALSE,7,"Flowers-Insects IAT","congruent","SCIAT first"
338205134,TRUE,"Only black faces","female",37,16,4.17,1347,0.92,FALSE,792,0.5,0.54,0.46,-0.08,FALSE,6,"Flowers-Insects IAT","incongruent","ratings first"
341550014,TRUE,"Both white and black faces","male",39,27,4,665,0.99,FALSE,286,0.92,0.86,0.98,0.12,FALSE,6,"Flowers-Insects IAT","incongruent","ratings first"
341993925,TRUE,"Only black faces","male",51,34,2,3080,0.9,FALSE,1351,0.44,0.16,0.72,0.56,FALSE,5,"Flowers-Insects IAT","congruent","ratings first"
344885281,TRUE,"Only black faces","female",52,24,4,1646,0.96,FALSE,974,0.84,1,0.68,-0.32,FALSE,1,"Race IAT","congruent","ratings first"
348914134,FALSE,NA,NA,NA,NA,NA,NA,NA,NA,NA,NA,NA,NA,NA,TRUE,6,"Flowers-Insects IAT","incongruent","ratings first"
351071339,FALSE,NA,NA,NA,NA,NA,NA,NA,NA,NA,NA,NA,NA,NA,TRUE,3,"Race IAT","congruent","SCIAT first"
352023639,TRUE,"Only black faces","female",52,20,4.17,675,0.99,FALSE,585,0.95,0.96,0.94,-0.02,FALSE,7,"Flowers-Insects IAT","congruent","SCIAT first"
352811895,TRUE,"Only black faces","male",35,29,5.5,1992,0.92,FALSE,2601,0.66,0.98,0.34,-0.64,FALSE,7,"Flowers-Insects IAT","congruent","SCIAT first"
355103961,TRUE,"Only black faces","male",51,17,4.5,970,0.98,FALSE,592,0.5,0.5,0.5,0,FALSE,1,"Race IAT","congruent","ratings first"
356003525,TRUE,"Only black faces","male",62,19,2.67,836,0.98,FALSE,847,0.32,0.34,0.3,-0.04,FALSE,5,"Flowers-Insects IAT","congruent","ratings first"
356499709,TRUE,"Only black faces","female",49,14,5,748,0.98,FALSE,335,0.41,0.36,0.46,0.1,FALSE,5,"Flowers-Insects IAT","congruent","ratings first"
356506405,TRUE,"Only black faces","female",24,15,4.5,698,0.9,FALSE,614,0.63,0.7,0.56,-0.14,FALSE,5,"Flowers-Insects IAT","congruent","ratings first"
357833947,TRUE,"Both white and black faces","male",42,32,6.5,373,0.47,TRUE,125,0.59,0.6,0.58,-0.02,TRUE,3,"Race IAT","congruent","SCIAT first"
358852524,TRUE,"I don't know","female",29,18,4,743,0.94,FALSE,293,0.9,0.86,0.94,0.08,FALSE,4,"Race IAT","incongruent","SCIAT first"
359403198,TRUE,"Only black faces","female",52,21,4,1161,0.91,FALSE,427,0.56,0.6,0.52,-0.08,FALSE,6,"Flowers-Insects IAT","incongruent","ratings first"
360350912,TRUE,"Only black faces","male",33,18,4,796,0.96,FALSE,156,0.59,0.54,0.64,0.1,FALSE,8,"Flowers-Insects IAT","incongruent","SCIAT first"
364027369,TRUE,"Only black faces","female",44,14,5.17,804,0.98,FALSE,677,0.6,0.32,0.88,0.56,FALSE,1,"Race IAT","congruent","ratings first"
367057467,TRUE,"Only black faces","male",40,27,5.67,2166,0.99,FALSE,944,0.58,0.96,0.2,-0.76,FALSE,3,"Race IAT","congruent","SCIAT first"
368314325,TRUE,"Only black faces","male",40,13,4.67,811,0.99,FALSE,662,0.51,0.44,0.58,0.14,FALSE,5,"Flowers-Insects IAT","congruent","ratings first"
373357770,FALSE,NA,NA,NA,NA,NA,NA,NA,NA,NA,NA,NA,NA,NA,TRUE,2,"Race IAT","incongruent","ratings first"
373537581,TRUE,"Only black faces","female",38,21,4.83,930,0.98,FALSE,569,0.82,0.72,0.92,0.2,FALSE,5,"Flowers-Insects IAT","congruent","ratings first"
379858517,TRUE,"Only black faces","male",25,17,4.67,1319,0.92,FALSE,427,0.83,0.84,0.82,-0.02,FALSE,5,"Flowers-Insects IAT","congruent","ratings first"
381268263,TRUE,"Only black faces","female",34,15,3.67,890,0.89,FALSE,662,0.46,0.4,0.52,0.12,FALSE,7,"Flowers-Insects IAT","congruent","SCIAT first"
383361592,FALSE,NA,NA,NA,NA,NA,NA,NA,NA,NA,NA,NA,NA,NA,TRUE,8,"Flowers-Insects IAT","incongruent","SCIAT first"
384369698,TRUE,"Only black faces","female",29,15,6,794,0.96,FALSE,214,0.61,0.66,0.56,-0.1,FALSE,2,"Race IAT","incongruent","ratings first"
386397022,TRUE,"I don't know","male",38,30,6,1385,0.98,FALSE,626,0.74,0.5,0.98,0.48,FALSE,6,"Flowers-Insects IAT","incongruent","ratings first"
388399433,TRUE,"Only black faces","female",44,21,5.67,826,0.97,FALSE,899,0.67,0.66,0.68,0.02,FALSE,1,"Race IAT","congruent","ratings first"
389159334,TRUE,"Both white and black faces","male",42,35,7,1035,0.69,TRUE,405,0.71,0.72,0.7,-0.02,TRUE,6,"Flowers-Insects IAT","incongruent","ratings first"
394214338,TRUE,"Only black faces","female",41,14,5.5,557,0.82,FALSE,279,0.82,0.8,0.84,0.0399999999999999,FALSE,2,"Race IAT","incongruent","ratings first"
395182951,TRUE,"Only black faces","female",57,23,3.83,697,0.99,FALSE,304,0.78,0.78,0.78,0,FALSE,7,"Flowers-Insects IAT","congruent","SCIAT first"
396865635,TRUE,"Only black faces","female",33,20,4,939,0.92,FALSE,674,1,1,1,0,FALSE,3,"Race IAT","congruent","SCIAT first"
401264406,TRUE,"Only black faces","female",18,14,3.5,771,0.9,FALSE,363,0.78,0.8,0.76,-0.04,FALSE,6,"Flowers-Insects IAT","incongruent","ratings first"
408211722,TRUE,"Both white and black faces","male",38,23,5.67,1601,0.97,FALSE,907,0.55,0.94,0.16,-0.78,FALSE,2,"Race IAT","incongruent","ratings first"
408288075,TRUE,"Both white and black faces","male",48,24,6,1055,1,FALSE,683,0.35,0.34,0.36,0.02,FALSE,3,"Race IAT","congruent","SCIAT first"
409119403,TRUE,"Only black faces","male",43,35,7,1593,0.91,FALSE,832,0.29,0.34,0.24,-0.1,FALSE,3,"Race IAT","congruent","SCIAT first"
413137442,TRUE,"Only black faces","female",28,15,4,840,0.91,FALSE,403,0.92,0.88,0.96,0.08,FALSE,2,"Race IAT","incongruent","ratings first"
413266568,TRUE,"I don't know","female",32,18,4.17,681,0.96,FALSE,591,0.6,0.62,0.58,-0.04,FALSE,8,"Flowers-Insects IAT","incongruent","SCIAT first"
414936969,TRUE,"Only black faces","male",60,17,5.33,913,0.99,FALSE,569,0.54,0.1,0.98,0.88,FALSE,1,"Race IAT","congruent","ratings first"
416358122,TRUE,"Only black faces","female",42,15,4.83,1015,0.98,FALSE,917,0.64,0.72,0.56,-0.16,FALSE,2,"Race IAT","incongruent","ratings first"
417244357,FALSE,NA,NA,NA,NA,NA,NA,NA,NA,NA,NA,NA,NA,NA,TRUE,5,"Flowers-Insects IAT","congruent","ratings first"
426592903,TRUE,"I don't know","male",34,13,4.83,896,0.83,FALSE,338,0.67,0.48,0.86,0.38,FALSE,7,"Flowers-Insects IAT","congruent","SCIAT first"
427662069,TRUE,"I don't know","female",51,25,4,994,0.98,FALSE,844,0.48,0.48,0.48,0,FALSE,5,"Flowers-Insects IAT","congruent","ratings first"
432673528,TRUE,"Both white and black faces","male",24,13,4,775,0.95,FALSE,421,0.99,0.98,1,0.02,FALSE,8,"Flowers-Insects IAT","incongruent","SCIAT first"
433479376,TRUE,"Only black faces","female",23,15,5.83,836,0.96,FALSE,380,1,1,1,0,FALSE,8,"Flowers-Insects IAT","incongruent","SCIAT first"
433564844,TRUE,"Only black faces","female",29,18,4,740,0.9,FALSE,401,0.57,0.62,0.52,-0.1,FALSE,4,"Race IAT","incongruent","SCIAT first"
433615812,TRUE,"Only black faces","female",36,12,4.5,1083,0.95,FALSE,875,0.7,0.72,0.68,-0.0399999999999999,FALSE,4,"Race IAT","incongruent","SCIAT first"
434839109,FALSE,NA,NA,NA,NA,NA,NA,NA,NA,NA,NA,NA,NA,NA,TRUE,5,"Flowers-Insects IAT","congruent","ratings first"
436533122,TRUE,"I don't know","female",24,16,4,957,0.91,FALSE,631,0.5,0.56,0.44,-0.12,FALSE,2,"Race IAT","incongruent","ratings first"
436594691,TRUE,"Only black faces","female",36,13,7,1223,0.99,FALSE,700,0.53,0.12,0.94,0.82,FALSE,3,"Race IAT","congruent","SCIAT first"
437174994,TRUE,"Only black faces","male",54,22,4.83,1584,0.95,FALSE,672,0.62,0.38,0.86,0.48,FALSE,2,"Race IAT","incongruent","ratings first"
437966026,TRUE,"Only black faces","female",26,18,4.83,705,0.96,FALSE,381,0.92,0.94,0.9,-0.0399999999999999,FALSE,2,"Race IAT","incongruent","ratings first"
439610419,TRUE,"Only black faces","male",58,15,4,933,0.97,FALSE,243,0.57,0.54,0.6,0.0599999999999999,FALSE,3,"Race IAT","congruent","SCIAT first"
441906438,TRUE,"I don't know","female",18,15,4,674,0.95,FALSE,579,0.7,0.68,0.72,0.0399999999999999,FALSE,6,"Flowers-Insects IAT","incongruent","ratings first"
442057301,TRUE,"Only black faces","male",30,17,4.5,662,0.97,FALSE,563,0.75,0.72,0.78,0.0600000000000001,FALSE,5,"Flowers-Insects IAT","congruent","ratings first"
442642046,TRUE,"Only black faces","male",23,17,3.33,730,0.92,FALSE,528,0.54,0.6,0.48,-0.12,FALSE,6,"Flowers-Insects IAT","incongruent","ratings first"
445551724,TRUE,"Only black faces","male",41,13,4,864,0.98,FALSE,996,0.75,0.6,0.9,0.3,FALSE,4,"Race IAT","incongruent","SCIAT first"
459708386,TRUE,"Only black faces","male",50,17,4.67,723,0.98,FALSE,630,0.62,0.6,0.64,0.04,FALSE,2,"Race IAT","incongruent","ratings first"
460474350,TRUE,"Only black faces","female",40,12,4.5,500,0.9,FALSE,342,0.56,0.46,0.66,0.2,FALSE,6,"Flowers-Insects IAT","incongruent","ratings first"
469898792,TRUE,"I don't know","male",23,20,3.67,1294,0.94,FALSE,416,0.57,0.66,0.48,-0.18,FALSE,8,"Flowers-Insects IAT","incongruent","SCIAT first"
470688392,TRUE,"Both white and black faces","male",48,16,4,1088,0.98,FALSE,604,0.85,0.88,0.82,-0.0600000000000001,FALSE,8,"Flowers-Insects IAT","incongruent","SCIAT first"
472584680,TRUE,"I don't know","female",33,16,5.83,695,0.94,FALSE,961,0.58,0.52,0.64,0.12,FALSE,8,"Flowers-Insects IAT","incongruent","SCIAT first"
473404454,TRUE,"Both white and black faces","female",44,15,4.33,818,0.98,FALSE,412,0.62,0.54,0.7,0.16,FALSE,6,"Flowers-Insects IAT","incongruent","ratings first"
473455292,TRUE,"Only black faces","female",32,15,4,627,0.9,FALSE,543,0.43,0.5,0.36,-0.14,FALSE,4,"Race IAT","incongruent","SCIAT first"
473496045,TRUE,"Only black faces","female",42,18,4,1008,0.98,FALSE,599,0.86,0.8,0.92,0.12,FALSE,5,"Flowers-Insects IAT","congruent","ratings first"
479864629,TRUE,"Only black faces","female",22,15,5.67,789,0.93,FALSE,889,0.49,0.46,0.52,0.06,FALSE,5,"Flowers-Insects IAT","congruent","ratings first"
489831608,TRUE,"Only black faces","male",52,19,4,825,0.99,FALSE,543,0.52,0.08,0.96,0.88,FALSE,8,"Flowers-Insects IAT","incongruent","SCIAT first"
490524599,TRUE,"Both white and black faces","female",48,14,4,774,0.97,FALSE,358,0.92,0.88,0.96,0.08,FALSE,7,"Flowers-Insects IAT","congruent","SCIAT first"
491055748,TRUE,"Both white and black faces","male",32,21,4,1010,0.77,FALSE,494,0.58,0.62,0.54,-0.08,FALSE,4,"Race IAT","incongruent","SCIAT first"
493145820,TRUE,"Only black faces","male",36,13,5.33,848,0.92,FALSE,662,0.78,0.76,0.8,0.04,FALSE,4,"Race IAT","incongruent","SCIAT first"
494187998,TRUE,"Only black faces","female",22,25,3.33,876,0.73,FALSE,212,0.31,0.46,0.16,-0.3,FALSE,6,"Flowers-Insects IAT","incongruent","ratings first"
495588217,FALSE,NA,NA,NA,NA,NA,NA,NA,NA,NA,NA,NA,NA,NA,TRUE,1,"Race IAT","congruent","ratings first"
498983412,TRUE,"I don't know","male",37,11,4.17,992,0.97,FALSE,851,0.48,0.48,0.48,0,FALSE,4,"Race IAT","incongruent","SCIAT first"
499294609,TRUE,"Only black faces","male",60,25,4,1151,0.98,FALSE,709,0.27,0.28,0.26,-0.02,FALSE,1,"Race IAT","congruent","ratings first"
504483292,TRUE,"Only black faces","male",18,12,4.33,977,0.98,FALSE,890,0.64,0.66,0.62,-0.04,FALSE,4,"Race IAT","incongruent","SCIAT first"
508358502,TRUE,"Only black faces","male",18,25,2.83,661,0.79,FALSE,401,0.7,0.76,0.64,-0.12,FALSE,6,"Flowers-Insects IAT","incongruent","ratings first"
509722057,TRUE,"Only black faces","female",63,14,4,878,1,FALSE,408,1,1,1,0,FALSE,1,"Race IAT","congruent","ratings first"
510318847,FALSE,NA,NA,NA,NA,NA,NA,NA,NA,NA,NA,NA,NA,NA,TRUE,7,"Flowers-Insects IAT","congruent","SCIAT first"
510630059,TRUE,"I don't know","male",19,18,2.83,986,0.95,FALSE,819,0.58,0.62,0.54,-0.08,FALSE,3,"Race IAT","congruent","SCIAT first"
510991885,TRUE,"Only black faces","male",40,19,3.33,688,0.99,FALSE,708,0.48,0.4,0.56,0.16,FALSE,5,"Flowers-Insects IAT","congruent","ratings first"
512402392,TRUE,"Only black faces","female",57,20,4.83,1007,0.98,FALSE,714,0.54,0.52,0.56,0.04,FALSE,8,"Flowers-Insects IAT","incongruent","SCIAT first"
517792012,TRUE,"Only black faces","female",23,12,4.17,745,0.93,FALSE,522,0.59,0.66,0.52,-0.14,FALSE,4,"Race IAT","incongruent","SCIAT first"
520510332,TRUE,"Both white and black faces","female",38,16,5.17,1122,0.85,FALSE,1112,0.28,0.26,0.3,0.04,FALSE,4,"Race IAT","incongruent","SCIAT first"
524937811,TRUE,"Only black faces","male",37,14,3.67,867,0.92,FALSE,735,0.56,0.46,0.66,0.2,FALSE,3,"Race IAT","congruent","SCIAT first"
525360810,TRUE,"Only black faces","female",22,21,3.5,484,0.54,TRUE,153,0.51,0.52,0.5,-0.02,TRUE,2,"Race IAT","incongruent","ratings first"
527478740,FALSE,NA,NA,NA,NA,NA,NA,NA,NA,NA,NA,NA,NA,NA,TRUE,4,"Race IAT","incongruent","SCIAT first"
527775144,TRUE,"Both white and black faces","male",28,20,4,674,0.66,TRUE,230,0.57,0.6,0.54,-0.0599999999999999,TRUE,8,"Flowers-Insects IAT","incongruent","SCIAT first"
528645024,TRUE,"Only black faces","male",19,15,4.5,606,0.98,FALSE,599,0.66,0.66,0.66,0,FALSE,8,"Flowers-Insects IAT","incongruent","SCIAT first"
529922704,TRUE,"I don't know","male",19,16,4.33,1044,0.98,FALSE,614,0.61,0.62,0.6,-0.02,FALSE,8,"Flowers-Insects IAT","incongruent","SCIAT first"
530436433,TRUE,"Both white and black faces","female",30,12,5,1139,0.98,FALSE,453,0.92,0.94,0.9,-0.0399999999999999,FALSE,1,"Race IAT","congruent","ratings first"
531963939,TRUE,"Both white and black faces","female",21,15,6.5,905,0.97,FALSE,738,0.71,0.68,0.74,0.0599999999999999,FALSE,3,"Race IAT","congruent","SCIAT first"
532086590,TRUE,"Only black faces","female",53,17,4.67,657,0.93,FALSE,344,0.67,0.68,0.66,-0.02,FALSE,6,"Flowers-Insects IAT","incongruent","ratings first"
534208930,TRUE,"Only black faces","female",41,19,7,611,0.93,FALSE,135,0.83,0.78,0.88,0.1,FALSE,2,"Race IAT","incongruent","ratings first"
549478871,TRUE,"Only black faces","male",47,31,2,4209,0.88,FALSE,1557,0.38,0.2,0.56,0.36,FALSE,7,"Flowers-Insects IAT","congruent","SCIAT first"
551859719,TRUE,"Both white and black faces","female",31,16,7,725,0.98,FALSE,308,0.55,0.12,0.98,0.86,FALSE,7,"Flowers-Insects IAT","congruent","SCIAT first"
553623186,TRUE,"Only black faces","male",24,16,3.83,835,1,FALSE,404,0.98,1,0.96,-0.04,FALSE,2,"Race IAT","incongruent","ratings first"
568135332,TRUE,"Only black faces","female",34,15,4.33,696,0.92,FALSE,523,0.9,0.88,0.92,0.04,FALSE,4,"Race IAT","incongruent","SCIAT first"
568896474,TRUE,"I don't know","female",47,15,6.17,1030,0.92,FALSE,590,0.49,0.64,0.34,-0.3,FALSE,2,"Race IAT","incongruent","ratings first"
569413659,TRUE,"Only black faces","female",28,12,4.33,808,0.91,FALSE,511,0.67,0.6,0.74,0.14,FALSE,3,"Race IAT","congruent","SCIAT first"
573713595,TRUE,"I don't know","female",37,20,3.83,738,0.98,FALSE,823,0.99,0.98,1,0.02,FALSE,3,"Race IAT","congruent","SCIAT first"
576027034,TRUE,"Both white and black faces","female",58,14,3.5,1025,0.88,FALSE,647,0.56,0.58,0.54,-0.0399999999999999,FALSE,2,"Race IAT","incongruent","ratings first"
584916902,TRUE,"I don't know","male",46,20,4,822,0.98,FALSE,520,0.64,0.58,0.7,0.12,FALSE,6,"Flowers-Insects IAT","incongruent","ratings first"
586960191,TRUE,"Only black faces","male",25,21,4,975,0.99,FALSE,156,0.44,0.48,0.4,-0.08,FALSE,7,"Flowers-Insects IAT","congruent","SCIAT first"
587659571,TRUE,"Only black faces","female",36,16,4.5,756,0.99,FALSE,415,0.82,0.7,0.94,0.24,FALSE,3,"Race IAT","congruent","SCIAT first"
587718879,TRUE,"Only black faces","male",28,22,4.17,745,0.92,FALSE,460,0.53,0.5,0.56,0.0600000000000001,FALSE,7,"Flowers-Insects IAT","congruent","SCIAT first"
589588938,TRUE,"Only black faces","female",22,17,7,727,0.9,FALSE,270,0.86,0.86,0.86,0,FALSE,2,"Race IAT","incongruent","ratings first"
590508781,TRUE,"Only black faces","female",25,17,4,770,0.98,FALSE,1110,0.59,0.6,0.58,-0.02,FALSE,5,"Flowers-Insects IAT","congruent","ratings first"
590882837,TRUE,"Both white and black faces","male",42,29,5.33,1414,0.94,FALSE,308,0.58,0.54,0.62,0.08,FALSE,5,"Flowers-Insects IAT","congruent","ratings first"
591972084,TRUE,"Only black faces","male",32,22,4.83,728,0.97,FALSE,755,0.5,0.54,0.46,-0.08,FALSE,4,"Race IAT","incongruent","SCIAT first"
592488477,TRUE,"Only black faces","female",26,17,4.17,1009,0.92,FALSE,631,0.82,0.84,0.8,-0.0399999999999999,FALSE,5,"Flowers-Insects IAT","congruent","ratings first"
594682551,TRUE,"Both white and black faces","female",48,18,5,887,0.98,FALSE,655,0.73,0.52,0.94,0.42,FALSE,7,"Flowers-Insects IAT","congruent","SCIAT first"
595785533,FALSE,NA,NA,NA,NA,NA,NA,NA,NA,NA,NA,NA,NA,NA,TRUE,5,"Flowers-Insects IAT","congruent","ratings first"
601050101,TRUE,"Only black faces","cis female",32,15,4.5,764,0.92,FALSE,422,0.46,0.5,0.42,-0.08,FALSE,5,"Flowers-Insects IAT","congruent","ratings first"
601961149,TRUE,"Only black faces","female",22,14,4,685,0.94,FALSE,646,0.45,0.46,0.44,-0.02,FALSE,5,"Flowers-Insects IAT","congruent","ratings first"
603568106,TRUE,"Only black faces","male",37,25,4.5,1246,0.92,FALSE,608,0.56,0.78,0.34,-0.44,FALSE,2,"Race IAT","incongruent","ratings first"
606092254,TRUE,"Only black faces","female",34,12,5,684,0.92,FALSE,537,0.54,0.54,0.54,0,FALSE,6,"Flowers-Insects IAT","incongruent","ratings first"
609129259,TRUE,"Only black faces","male",33,27,7,1308,0.95,FALSE,504,0.83,0.74,0.92,0.18,FALSE,3,"Race IAT","congruent","SCIAT first"
610070130,TRUE,"Only black faces","male",30,19,4,735,0.89,FALSE,427,0.14,0.16,0.12,-0.04,FALSE,2,"Race IAT","incongruent","ratings first"
616623005,TRUE,"Only black faces","female",24,19,4,809,0.98,FALSE,311,0.68,0.6,0.76,0.16,FALSE,5,"Flowers-Insects IAT","congruent","ratings first"
616783822,TRUE,"Only black faces","female",27,16,4,637,0.83,FALSE,415,0.7,0.68,0.72,0.0399999999999999,FALSE,6,"Flowers-Insects IAT","incongruent","ratings first"
618560763,TRUE,"Only black faces","female",18,14,4,607,0.98,FALSE,716,0.67,0.48,0.86,0.38,FALSE,3,"Race IAT","congruent","SCIAT first"
623330752,TRUE,"Both white and black faces","male",42,31,6.5,391,0.53,TRUE,141,0.61,0.58,0.64,0.0600000000000001,TRUE,8,"Flowers-Insects IAT","incongruent","SCIAT first"
623699005,TRUE,"Only black faces","female",24,17,5.67,773,0.85,FALSE,795,1,1,1,0,FALSE,5,"Flowers-Insects IAT","congruent","ratings first"
631866447,TRUE,"I don't know","male",60,20,4.33,657,1,FALSE,524,0.74,0.7,0.78,0.0800000000000001,FALSE,7,"Flowers-Insects IAT","congruent","SCIAT first"
636792084,TRUE,"Only black faces","female",42,15,4,741,0.98,FALSE,487,0.5,0.58,0.42,-0.16,FALSE,4,"Race IAT","incongruent","SCIAT first"
636847803,TRUE,"I don't know","female",36,17,5.33,1267,0.98,FALSE,596,0.87,0.94,0.8,-0.14,FALSE,3,"Race IAT","congruent","SCIAT first"
641776334,FALSE,NA,NA,NA,NA,NA,NA,NA,NA,NA,NA,NA,NA,NA,TRUE,6,"Flowers-Insects IAT","incongruent","ratings first"
645985891,TRUE,"Only black faces","female",25,16,7,1417,0.94,FALSE,390,0.49,0.54,0.44,-0.1,FALSE,3,"Race IAT","congruent","SCIAT first"
647210487,TRUE,"Only black faces","male",65,19,4.5,1247,0.98,FALSE,727,0.44,0.48,0.4,-0.08,FALSE,7,"Flowers-Insects IAT","congruent","SCIAT first"
647333306,TRUE,"Only black faces","female",31,13,5.17,1216,0.96,FALSE,477,0.59,0.6,0.58,-0.02,FALSE,2,"Race IAT","incongruent","ratings first"
650166328,FALSE,NA,NA,NA,NA,NA,NA,NA,NA,NA,NA,NA,NA,NA,TRUE,8,"Flowers-Insects IAT","incongruent","SCIAT first"
650179091,TRUE,"Only black faces","female",21,15,4,750,0.85,FALSE,572,0.59,0.62,0.56,-0.0599999999999999,FALSE,3,"Race IAT","congruent","SCIAT first"
650740867,TRUE,"Only black faces","female",37,11,5,663,0.98,FALSE,704,0.63,0.58,0.68,0.1,FALSE,3,"Race IAT","congruent","SCIAT first"
654828403,TRUE,"Only black faces","male",29,14,7,690,0.94,FALSE,581,0.87,0.84,0.9,0.0600000000000001,FALSE,3,"Race IAT","congruent","SCIAT first"
657581302,FALSE,NA,NA,NA,NA,NA,NA,NA,NA,NA,NA,NA,NA,NA,TRUE,6,"Flowers-Insects IAT","incongruent","ratings first"
658011067,TRUE,"Only black faces","male",23,15,5.17,781,0.98,FALSE,439,0.69,0.66,0.72,0.0599999999999999,FALSE,3,"Race IAT","congruent","SCIAT first"
665775209,TRUE,"Only black faces","female",42,20,4,813,0.98,FALSE,558,0.78,0.7,0.86,0.16,FALSE,1,"Race IAT","congruent","ratings first"
668360398,TRUE,"Only black faces","female",41,20,4.33,797,0.96,FALSE,697,1,1,1,0,FALSE,6,"Flowers-Insects IAT","incongruent","ratings first"
668997454,TRUE,"Only black faces","female",23,15,4,642,1,FALSE,515,0.62,0.7,0.54,-0.16,FALSE,6,"Flowers-Insects IAT","incongruent","ratings first"
676606712,TRUE,"I don't know","female",44,15,4,953,0.98,FALSE,469,1,1,1,0,FALSE,8,"Flowers-Insects IAT","incongruent","SCIAT first"
677511107,FALSE,NA,NA,NA,NA,NA,NA,NA,NA,NA,NA,NA,NA,NA,TRUE,3,"Race IAT","congruent","SCIAT first"
677521782,TRUE,"Only black faces","male ",21,13,5.17,618,0.88,FALSE,479,0.57,0.62,0.52,-0.1,FALSE,6,"Flowers-Insects IAT","incongruent","ratings first"
679560096,TRUE,"Only black faces","male",32,21,4,899,0.96,FALSE,551,0.67,0.82,0.52,-0.3,FALSE,8,"Flowers-Insects IAT","incongruent","SCIAT first"
687742676,TRUE,"I don't know","male",31,22,3.83,899,0.92,FALSE,504,0.37,0.44,0.3,-0.14,FALSE,4,"Race IAT","incongruent","SCIAT first"
688482992,TRUE,"Only black faces","female",24,15,5.33,620,0.92,FALSE,242,0.48,0.18,0.78,0.6,FALSE,8,"Flowers-Insects IAT","incongruent","SCIAT first"
692592044,TRUE,"Both white and black faces","male",33,21,4.17,82,0.52,TRUE,185,0.39,0.38,0.4,0.02,TRUE,4,"Race IAT","incongruent","SCIAT first"
692825467,TRUE,"Both white and black faces","female",46,20,3.67,637,0.98,FALSE,688,0.54,0.64,0.44,-0.2,FALSE,3,"Race IAT","congruent","SCIAT first"
698092745,TRUE,"Both white and black faces","female",19,15,5.33,707,0.95,FALSE,283,1,1,1,0,FALSE,1,"Race IAT","congruent","ratings first"
701329033,TRUE,"Both white and black faces","female",60,19,6.33,793,0.97,FALSE,521,0.57,0.6,0.54,-0.0599999999999999,FALSE,1,"Race IAT","congruent","ratings first"
706020134,TRUE,"I don't know","female",24,12,6.17,778,0.94,FALSE,655,0.61,0.5,0.72,0.22,FALSE,6,"Flowers-Insects IAT","incongruent","ratings first"
707828647,TRUE,"Only black faces","male",42,18,3.5,758,0.92,FALSE,389,0.52,0.58,0.46,-0.12,FALSE,7,"Flowers-Insects IAT","congruent","SCIAT first"
711210983,TRUE,"Only black faces","female",19,15,5,844,0.98,FALSE,1128,0.77,0.72,0.82,0.1,FALSE,7,"Flowers-Insects IAT","congruent","SCIAT first"
712821489,TRUE,"Only black faces","male5aa459",28,13,4,963,0.99,FALSE,550,0.57,0.68,0.46,-0.22,FALSE,1,"Race IAT","congruent","ratings first"
716051228,TRUE,"I don't know","female",54,17,4.67,1058,0.98,FALSE,618,0.98,0.98,0.98,0,FALSE,4,"Race IAT","incongruent","SCIAT first"
722153133,TRUE,"Only black faces","male",59,19,5,1082,0.98,FALSE,493,0.63,0.64,0.62,-0.02,FALSE,5,"Flowers-Insects IAT","congruent","ratings first"
722357365,TRUE,"Only black faces","male",34,17,4.17,953,0.88,FALSE,642,0.79,0.86,0.72,-0.14,FALSE,5,"Flowers-Insects IAT","congruent","ratings first"
722910150,TRUE,"Only black faces","female",26,14,4.5,943,0.94,FALSE,618,0.57,0.54,0.6,0.0599999999999999,FALSE,6,"Flowers-Insects IAT","incongruent","ratings first"
723398734,TRUE,"Only black faces","male",59,12,4.83,880,0.98,FALSE,605,0.7,0.7,0.7,0,FALSE,6,"Flowers-Insects IAT","incongruent","ratings first"
727574247,TRUE,"Only black faces","female",21,23,4.17,833,0.99,FALSE,454,0.45,0.02,0.88,0.86,FALSE,7,"Flowers-Insects IAT","congruent","SCIAT first"
728008339,TRUE,"Only black faces","male",35,13,4.83,879,0.94,FALSE,1041,0.75,0.68,0.82,0.14,FALSE,3,"Race IAT","congruent","SCIAT first"
731902506,TRUE,"I don't know","male",24,17,4.17,868,0.96,FALSE,384,0.73,0.7,0.76,0.0600000000000001,FALSE,2,"Race IAT","incongruent","ratings first"
732229784,TRUE,"Both white and black faces","male",25,16,4.67,714,0.88,FALSE,533,0.65,0.64,0.66,0.02,FALSE,8,"Flowers-Insects IAT","incongruent","SCIAT first"
733928976,TRUE,"Both white and black faces","female",29,18,7,716,0.94,FALSE,572,0.83,0.88,0.78,-0.1,FALSE,8,"Flowers-Insects IAT","incongruent","SCIAT first"
738856381,FALSE,NA,NA,NA,NA,NA,NA,NA,NA,NA,NA,NA,NA,NA,TRUE,5,"Flowers-Insects IAT","congruent","ratings first"
743668990,TRUE,"Both white and black faces","male",35,28,2.67,789,0.98,FALSE,524,0.23,0,0.46,0.46,FALSE,6,"Flowers-Insects IAT","incongruent","ratings first"
751481078,TRUE,"Both white and black faces","male",40,23,7,314,0.47,TRUE,118,0.58,0.62,0.54,-0.08,TRUE,6,"Flowers-Insects IAT","incongruent","ratings first"
751941141,TRUE,"Only black faces","male",50,14,3.83,982,0.99,FALSE,376,0.82,0.78,0.86,0.08,FALSE,5,"Flowers-Insects IAT","congruent","ratings first"
752193079,TRUE,"Only black faces","male",44,18,4,1009,0.92,FALSE,402,0.96,0.94,0.98,0.04,FALSE,7,"Flowers-Insects IAT","congruent","SCIAT first"
754325798,TRUE,"Only black faces","female",34,13,4,764,0.95,FALSE,713,0.55,0.42,0.68,0.26,FALSE,6,"Flowers-Insects IAT","incongruent","ratings first"
754969591,TRUE,"Only black faces","male",31,21,4.17,788,0.99,FALSE,394,0.44,0.72,0.16,-0.56,FALSE,7,"Flowers-Insects IAT","congruent","SCIAT first"
755961286,TRUE,"Only black faces","female",21,14,6,537,0.91,FALSE,432,1,1,1,0,FALSE,6,"Flowers-Insects IAT","incongruent","ratings first"
757161678,TRUE,"Only black faces","male",42,13,4.83,1423,1,FALSE,1057,0.82,0.8,0.84,0.0399999999999999,FALSE,6,"Flowers-Insects IAT","incongruent","ratings first"
765420181,TRUE,"Only black faces","female",27,20,4.5,735,0.96,FALSE,494,0.59,0.52,0.66,0.14,FALSE,5,"Flowers-Insects IAT","congruent","ratings first"
766903329,TRUE,"Only black faces","male",25,15,4,983,0.98,FALSE,560,0.7,0.7,0.7,0,FALSE,1,"Race IAT","congruent","ratings first"
767115399,TRUE,"Both white and black faces","male",20,19,4.17,1050,0.91,FALSE,611,0.34,0.44,0.24,-0.2,FALSE,7,"Flowers-Insects IAT","congruent","SCIAT first"
773667785,TRUE,"Both white and black faces","male",32,14,6,754,0.9,FALSE,522,0.89,0.96,0.82,-0.14,FALSE,1,"Race IAT","congruent","ratings first"
775065202,FALSE,NA,NA,NA,NA,NA,NA,NA,NA,NA,NA,NA,NA,NA,TRUE,2,"Race IAT","incongruent","ratings first"
775923536,FALSE,NA,NA,NA,NA,NA,NA,NA,NA,NA,NA,NA,NA,NA,TRUE,8,"Flowers-Insects IAT","incongruent","SCIAT first"
780325366,FALSE,NA,NA,NA,NA,NA,NA,NA,NA,NA,NA,NA,NA,NA,TRUE,6,"Flowers-Insects IAT","incongruent","ratings first"
783403551,TRUE,"Only black faces","male",32,21,4,883,0.87,FALSE,272,0.66,0.58,0.74,0.16,FALSE,7,"Flowers-Insects IAT","congruent","SCIAT first"
791410652,TRUE,"Only black faces","male",35,18,4,744,0.96,FALSE,646,0.88,0.88,0.88,0,FALSE,4,"Race IAT","incongruent","SCIAT first"
799541504,TRUE,"I don't know","female",41,20,3.83,863,0.89,FALSE,707,0.95,0.98,0.92,-0.0599999999999999,FALSE,8,"Flowers-Insects IAT","incongruent","SCIAT first"
803208871,TRUE,"Only black faces","female",24,11,7,889,0.95,FALSE,316,0.98,1,0.96,-0.04,FALSE,7,"Flowers-Insects IAT","congruent","SCIAT first"
803503329,TRUE,"Only black faces","female",26,16,6.17,839,0.97,FALSE,477,0.54,0.66,0.42,-0.24,FALSE,1,"Race IAT","congruent","ratings first"
803542216,TRUE,"Only black faces","male",63,7,4,1023,0.99,FALSE,630,1,1,1,0,FALSE,8,"Flowers-Insects IAT","incongruent","SCIAT first"
806773957,TRUE,"Only black faces","female",20,11,5.5,818,0.92,FALSE,351,0.6,0.3,0.9,0.6,FALSE,5,"Flowers-Insects IAT","congruent","ratings first"
806795175,TRUE,"Only black faces","female",18,19,4,909,0.95,FALSE,344,0.91,0.94,0.88,-0.0599999999999999,FALSE,7,"Flowers-Insects IAT","congruent","SCIAT first"
807009309,TRUE,"Only black faces","female",30,17,4.5,1039,0.92,FALSE,551,0.71,0.78,0.64,-0.14,FALSE,5,"Flowers-Insects IAT","congruent","ratings first"
815726993,TRUE,"Only black faces","male",32,19,4.17,797,0.94,FALSE,444,0.59,0.56,0.62,0.0599999999999999,FALSE,1,"Race IAT","congruent","ratings first"
820929681,TRUE,"Both white and black faces","female",58,15,7,1270,0.94,FALSE,413,1,1,1,0,FALSE,1,"Race IAT","congruent","ratings first"
821252036,TRUE,"Both white and black faces","male",18,15,4,764,0.95,FALSE,412,0.53,0.54,0.52,-0.02,FALSE,4,"Race IAT","incongruent","SCIAT first"
824505317,FALSE,NA,NA,NA,NA,NA,NA,NA,NA,NA,NA,NA,NA,NA,TRUE,5,"Flowers-Insects IAT","congruent","ratings first"
826236667,TRUE,"Only black faces","female",28,24,3.67,803,0.97,FALSE,655,0.56,0.56,0.56,0,FALSE,3,"Race IAT","congruent","SCIAT first"
830748203,TRUE,"Both white and black faces","female",46,13,5,1145,0.98,FALSE,547,1,1,1,0,FALSE,3,"Race IAT","congruent","SCIAT first"
832135924,TRUE,"I don't know","male",58,26,3.83,896,0.97,FALSE,953,0.61,0.58,0.64,0.0600000000000001,FALSE,4,"Race IAT","incongruent","SCIAT first"
834381448,TRUE,"Only black faces","female",49,15,4.83,867,0.99,FALSE,598,0.56,0.58,0.54,-0.0399999999999999,FALSE,8,"Flowers-Insects IAT","incongruent","SCIAT first"
835376645,TRUE,"Only black faces","female",37,16,4,1050,0.97,FALSE,545,0.86,0.88,0.84,-0.04,FALSE,5,"Flowers-Insects IAT","congruent","ratings first"
843153391,TRUE,"Only black faces","male",53,24,4,935,0.99,FALSE,427,0.47,0.48,0.46,-0.02,FALSE,7,"Flowers-Insects IAT","congruent","SCIAT first"
847083723,FALSE,NA,NA,NA,NA,NA,NA,NA,NA,NA,NA,NA,NA,NA,TRUE,3,"Race IAT","congruent","SCIAT first"
849747613,TRUE,"Both white and black faces","female",30,15,4,871,0.99,FALSE,388,0.57,0.6,0.54,-0.0599999999999999,FALSE,5,"Flowers-Insects IAT","congruent","ratings first"
854706704,TRUE,"I don't know","female",47,15,5.5,782,0.96,FALSE,1178,0.9,0.84,0.96,0.12,FALSE,8,"Flowers-Insects IAT","incongruent","SCIAT first"
855240671,TRUE,"Both white and black faces","male",40,27,5,321,0.52,TRUE,109,0.62,0.64,0.6,-0.04,TRUE,7,"Flowers-Insects IAT","congruent","SCIAT first"
856223037,TRUE,"Only black faces","male",19,20,4,860,0.91,FALSE,354,0.64,0.64,0.64,0,FALSE,5,"Flowers-Insects IAT","congruent","ratings first"
856760907,TRUE,"Only black faces","male",40,26,5,1415,0.94,FALSE,251,0.84,0.82,0.86,0.04,FALSE,3,"Race IAT","congruent","SCIAT first"
863811247,TRUE,"Only black faces","female",61,13,6,1070,0.99,FALSE,177,1,1,1,0,FALSE,7,"Flowers-Insects IAT","congruent","SCIAT first"
866702155,TRUE,"Only black faces","female",22,17,5.83,873,0.9,FALSE,373,0.85,0.78,0.92,0.14,FALSE,3,"Race IAT","congruent","SCIAT first"
867752673,FALSE,NA,NA,NA,NA,NA,NA,NA,NA,NA,NA,NA,NA,NA,TRUE,1,"Race IAT","congruent","ratings first"
868161280,FALSE,NA,NA,NA,NA,NA,NA,NA,NA,NA,NA,NA,NA,NA,TRUE,8,"Flowers-Insects IAT","incongruent","SCIAT first"
869435036,TRUE,"Only black faces","female",25,16,4.5,779,0.94,FALSE,745,0.67,0.68,0.66,-0.02,FALSE,4,"Race IAT","incongruent","SCIAT first"
874928319,TRUE,"Only white faces","male",27,29,4.83,1767,0.96,FALSE,761,0.75,0.7,0.8,0.1,FALSE,7,"Flowers-Insects IAT","congruent","SCIAT first"
878482895,TRUE,"Only black faces","male",55,13,5.17,993,0.96,FALSE,889,0.53,0.54,0.52,-0.02,FALSE,7,"Flowers-Insects IAT","congruent","SCIAT first"
884023079,TRUE,"Only black faces","male",28,11,5.83,1354,0.99,FALSE,481,0.95,0.92,0.98,0.0599999999999999,FALSE,7,"Flowers-Insects IAT","congruent","SCIAT first"
886966735,TRUE,"I don't know","female",30,11,5.83,939,0.96,FALSE,474,0.81,0.7,0.92,0.22,FALSE,7,"Flowers-Insects IAT","congruent","SCIAT first"
888521250,TRUE,"I don't know","male",19,20,4,924,0.92,FALSE,509,0.74,0.72,0.76,0.04,FALSE,2,"Race IAT","incongruent","ratings first"
890059509,TRUE,"Only black faces","female",63,13,3.67,810,0.98,FALSE,503,0.71,0.62,0.8,0.18,FALSE,5,"Flowers-Insects IAT","congruent","ratings first"
890183240,TRUE,"Only black faces","male",26,19,4,681,0.93,FALSE,589,0.39,0.46,0.32,-0.14,FALSE,8,"Flowers-Insects IAT","incongruent","SCIAT first"
897461333,TRUE,"Only black faces","male",18,20,4.67,1703,0.97,FALSE,757,0.6,0.44,0.76,0.32,FALSE,5,"Flowers-Insects IAT","congruent","ratings first"
901746794,TRUE,"Only black faces","female",23,15,4,854,0.93,FALSE,621,0.74,0.68,0.8,0.12,FALSE,2,"Race IAT","incongruent","ratings first"
902210692,TRUE,"Only black faces","female",26,14,4.83,778,0.87,FALSE,387,0.81,0.76,0.86,0.1,FALSE,4,"Race IAT","incongruent","SCIAT first"
902266725,TRUE,"I don't know","female",31,19,4.67,852,0.96,FALSE,516,0.64,0.56,0.72,0.16,FALSE,5,"Flowers-Insects IAT","congruent","ratings first"
902827843,TRUE,"Only black faces","female",65,15,4,893,0.88,FALSE,431,0.57,0.6,0.54,-0.0599999999999999,FALSE,3,"Race IAT","congruent","SCIAT first"
905831587,TRUE,"Only black faces","female",64,19,2.67,1167,1,FALSE,666,0.67,1,0.34,-0.66,FALSE,3,"Race IAT","congruent","SCIAT first"
906073171,TRUE,"Only black faces","male",46,19,4.5,752,0.95,FALSE,459,0.93,0.88,0.98,0.1,FALSE,3,"Race IAT","congruent","SCIAT first"
910709565,TRUE,"Only black faces","male",40,33,1.83,3015,0.96,FALSE,1075,0.34,0.02,0.66,0.64,FALSE,5,"Flowers-Insects IAT","congruent","ratings first"
912437595,TRUE,"Only black faces","male",35,28,4,1247,0.96,FALSE,553,0.74,0.68,0.8,0.12,FALSE,3,"Race IAT","congruent","SCIAT first"
912610539,TRUE,"I don't know","female ",20,16,4,1041,0.97,FALSE,194,0.78,0.8,0.76,-0.04,FALSE,3,"Race IAT","congruent","SCIAT first"
913182879,TRUE,"Only black faces","male",45,19,4,899,0.94,FALSE,734,1,1,1,0,FALSE,7,"Flowers-Insects IAT","congruent","SCIAT first"
913472146,TRUE,"Only black faces","female",24,17,5.5,717,0.97,FALSE,549,0.61,0.56,0.66,0.1,FALSE,2,"Race IAT","incongruent","ratings first"
914656232,TRUE,"Only black faces","male",21,24,6.83,850,0.91,FALSE,623,0.92,0.84,1,0.16,FALSE,8,"Flowers-Insects IAT","incongruent","SCIAT first"
916705010,TRUE,"Only black faces","male",37,15,4.17,995,0.98,FALSE,328,0.64,0.58,0.7,0.12,FALSE,2,"Race IAT","incongruent","ratings first"
917643929,TRUE,"Only black faces","male",66,24,4,762,0.96,FALSE,725,0.61,0.58,0.64,0.0600000000000001,FALSE,1,"Race IAT","congruent","ratings first"
919092868,TRUE,"Only black faces","female",52,15,5.83,788,1,FALSE,782,0.47,0.52,0.42,-0.1,FALSE,4,"Race IAT","incongruent","SCIAT first"
931329471,TRUE,"Only black faces","female",25,15,4.33,812,0.98,FALSE,614,0.63,0.68,0.58,-0.1,FALSE,7,"Flowers-Insects IAT","congruent","SCIAT first"
932005119,TRUE,"I don't know","male",28,15,3.67,665,0.88,FALSE,636,0.87,0.84,0.9,0.0600000000000001,FALSE,7,"Flowers-Insects IAT","congruent","SCIAT first"
933269461,TRUE,"Only black faces","male",45,35,2.83,1433,0.78,FALSE,2298,0.39,0.12,0.66,0.54,FALSE,5,"Flowers-Insects IAT","congruent","ratings first"
935523677,TRUE,"Only white faces","male",35,24,3.83,2167,0.97,FALSE,1072,0.57,0.84,0.3,-0.54,FALSE,5,"Flowers-Insects IAT","congruent","ratings first"
942324321,TRUE,"Only black faces","female",53,16,4,982,0.98,FALSE,600,0.45,0.54,0.36,-0.18,FALSE,1,"Race IAT","congruent","ratings first"
948366732,TRUE,"Only black faces","female",45,14,7,803,0.95,FALSE,173,0.99,1,0.98,-0.02,FALSE,4,"Race IAT","incongruent","SCIAT first"
949214698,TRUE,"Only black faces","male",33,17,4.83,1218,0.86,FALSE,348,0.93,0.92,0.94,0.0199999999999999,FALSE,2,"Race IAT","incongruent","ratings first"
951126337,TRUE,"Only black faces","female",37,11,6,976,0.97,FALSE,409,0.57,0.54,0.6,0.0599999999999999,FALSE,1,"Race IAT","congruent","ratings first"
952006938,TRUE,"Only black faces","female",46,17,5.67,1072,0.97,FALSE,686,0.71,0.66,0.76,0.1,FALSE,2,"Race IAT","incongruent","ratings first"
952333584,TRUE,"Only black faces","female",29,23,3.5,889,0.86,FALSE,786,0.53,0.52,0.54,0.02,FALSE,8,"Flowers-Insects IAT","incongruent","SCIAT first"
954702142,TRUE,"Only black faces","male",43,15,4,874,0.91,FALSE,920,0.77,0.74,0.8,0.0600000000000001,FALSE,6,"Flowers-Insects IAT","incongruent","ratings first"
956708556,TRUE,"Both white and black faces","female",36,17,4.5,900,1,FALSE,660,0.77,0.58,0.96,0.38,FALSE,4,"Race IAT","incongruent","SCIAT first"
971111375,TRUE,"Only black faces","male",59,21,4.17,783,0.96,FALSE,837,0.75,0.88,0.62,-0.26,FALSE,7,"Flowers-Insects IAT","congruent","SCIAT first"
972375767,TRUE,"Only black faces","female",30,28,4,600,0.93,FALSE,262,0.87,0.86,0.88,0.02,FALSE,7,"Flowers-Insects IAT","congruent","SCIAT first"
974526156,TRUE,"Only black faces","male",57,14,3.83,1512,0.92,FALSE,856,0.53,0.52,0.54,0.02,FALSE,4,"Race IAT","incongruent","SCIAT first"
974899840,TRUE,"I don't know","female",32,25,5,676,0.97,FALSE,532,0.86,0.8,0.92,0.12,FALSE,8,"Flowers-Insects IAT","incongruent","SCIAT first"
975448919,TRUE,"Only black faces","male",29,14,4.33,666,0.92,FALSE,434,0.48,0.44,0.52,0.08,FALSE,7,"Flowers-Insects IAT","congruent","SCIAT first"
976684141,TRUE,"Only black faces","male",38,13,4.17,740,0.92,FALSE,379,0.77,0.76,0.78,0.02,FALSE,5,"Flowers-Insects IAT","congruent","ratings first"
978566590,TRUE,"Only black faces","male",27,16,4.17,743,0.93,FALSE,237,0.98,0.96,1,0.04,FALSE,6,"Flowers-Insects IAT","incongruent","ratings first"
989661499,TRUE,"Both white and black faces","female",29,15,6,790,0.92,FALSE,359,0.7,0.66,0.74,0.08,FALSE,3,"Race IAT","congruent","SCIAT first"
991875699,FALSE,NA,NA,NA,NA,NA,NA,NA,NA,NA,NA,NA,NA,NA,TRUE,3,"Race IAT","congruent","SCIAT first"
992132586,TRUE,"Only black faces","male",56,18,5.17,985,0.96,FALSE,474,0.75,0.74,0.76,0.02,FALSE,2,"Race IAT","incongruent","ratings first"
992216196,TRUE,"Only black faces","male",21,26,4.33,969,0.96,FALSE,746,0.66,0.6,0.72,0.12,FALSE,4,"Race IAT","incongruent","SCIAT first"
993048628,FALSE,NA,NA,NA,NA,NA,NA,NA,NA,NA,NA,NA,NA,NA,TRUE,4,"Race IAT","incongruent","SCIAT first"
995007062,TRUE,"Both white and black faces","male",19,20,3.83,721,0.96,FALSE,468,0.59,0.52,0.66,0.14,FALSE,6,"Flowers-Insects IAT","incongruent","ratings first"
998555993,TRUE,"Only black faces","male",45,35,3.17,1109,0.88,FALSE,789,0.51,0.28,0.74,0.46,FALSE,1,"Race IAT","congruent","ratings first"
