"","V1","date","time","group","subject","build","blocknum","trialnum","blockcode","trialcode","pretrialpause","posttrialpause","windowcenter","trialduration","trialtimeout","blocktimeout","response","correct","latency","inwindow"
"1","1","122216","23:09:13","292","292","4.0.9.0","1","1","demographics","age","0","0","0","0","0","0","27","1","3076","0"
"2","2","122216","23:09:13","292","292","4.0.9.0","1","2","demographics","gender","0","0","0","0","0","0","female","1","2750","0"
"3","3","122216","22:58:12","293","293","4.0.9.0","1","1","demographics","age","0","0","0","0","0","0","31","1","3986","0"
"4","4","122216","22:58:12","293","293","4.0.9.0","1","2","demographics","gender","0","0","0","0","0","0","male","1","3571","0"
"5","5","122216","21:53:41","291","291","4.0.9.0","1","1","demographics","age","0","0","0","0","0","0","33","1","3826","0"
"6","6","122216","21:53:41","291","291","4.0.9.0","1","2","demographics","gender","0","0","0","0","0","0","male","1","3465","0"
"7","7","122216","21:53:16","290","290","4.0.9.0","1","1","demographics","age","0","0","0","0","0","0","43","1","3070","0"
"8","8","122216","21:53:16","290","290","4.0.9.0","1","2","demographics","gender","0","0","0","0","0","0","female","1","4771","0"
"9","9","122216","21:52:16","289","289","4.0.9.0","1","1","demographics","age","0","0","0","0","0","0","43","1","3993","0"
"10","10","122216","21:52:16","289","289","4.0.9.0","1","2","demographics","gender","0","0","0","0","0","0","female","1","5304","0"
"11","11","122216","21:47:55","282","282","4.0.9.0","1","1","demographics","age","0","0","0","0","0","0","22","1","3344","0"
"12","12","122216","21:47:55","282","282","4.0.9.0","1","2","demographics","gender","0","0","0","0","0","0","Male","1","3560","0"
"13","13","122316","03:50:20","288","288","4.0.9.0","1","1","demographics","age","0","0","0","0","0","0","18","1","5648","0"
"14","14","122316","03:50:20","288","288","4.0.9.0","1","2","demographics","gender","0","0","0","0","0","0","Male","1","3617","0"
"15","15","122216","21:49:31","287","287","4.0.9.0","1","1","demographics","age","0","0","0","0","0","0","40","1","4098","0"
"16","16","122216","21:49:31","287","287","4.0.9.0","1","2","demographics","gender","0","0","0","0","0","0","male","1","4107","0"
"17","17","122216","19:47:36","283","283","4.0.9.0","1","1","demographics","age","0","0","0","0","0","0","42","1","4347","0"
"18","18","122216","19:47:36","283","283","4.0.9.0","1","2","demographics","gender","0","0","0","0","0","0","male","1","4049","0"
"19","19","122316","03:47:49","286","286","4.0.9.0","1","1","demographics","age","0","0","0","0","0","0","18","1","3773","0"
"20","20","122316","03:47:49","286","286","4.0.9.0","1","2","demographics","gender","0","0","0","0","0","0","Male","1","4355","0"
"21","21","122316","03:46:16","284","284","4.0.9.0","1","1","demographics","age","0","0","0","0","0","0","21","1","8631","0"
"22","22","122316","03:46:16","284","284","4.0.9.0","1","2","demographics","gender","0","0","0","0","0","0","Male","1","4017","0"
"23","23","122216","21:45:30","278","278","4.0.9.0","1","1","demographics","age","0","0","0","0","0","0","28","1","2974","0"
"24","24","122216","21:45:30","278","278","4.0.9.0","1","2","demographics","gender","0","0","0","0","0","0","male","1","2959","0"
"25","25","122216","22:44:12","281","281","4.0.9.0","1","1","demographics","age","0","0","0","0","0","0","41","1","4271","0"
"26","26","122216","22:44:12","281","281","4.0.9.0","1","2","demographics","gender","0","0","0","0","0","0","Male","1","10824","0"
"27","27","122216","22:43:39","279","279","4.0.9.0","1","1","demographics","age","0","0","0","0","0","0","28","1","10784","0"
"28","28","122216","22:43:39","279","279","4.0.9.0","1","2","demographics","gender","0","0","0","0","0","0","female","1","5375","0"
"29","29","122216","22:43:01","280","280","4.0.9.0","1","1","demographics","age","0","0","0","0","0","0","46","1","7708","0"
"30","30","122216","22:43:01","280","280","4.0.9.0","1","2","demographics","gender","0","0","0","0","0","0","male","1","4551","0"
"31","31","122316","03:40:24","276","276","4.0.9.0","1","1","demographics","age","0","0","0","0","0","0","35","1","6804","0"
"32","32","122316","03:40:24","276","276","4.0.9.0","1","2","demographics","gender","0","0","0","0","0","0","male","1","6855","0"
"33","33","122316","03:40:08","275","275","4.0.9.0","1","1","demographics","age","0","0","0","0","0","0","18","1","5838","0"
"34","34","122316","03:40:08","275","275","4.0.9.0","1","2","demographics","gender","0","0","0","0","0","0","Male","1","4049","0"
"35","35","122216","21:39:04","270","270","4.0.9.0","1","1","demographics","age","0","0","0","0","0","0","18","1","4101","0"
"36","36","122216","21:39:04","270","270","4.0.9.0","1","2","demographics","gender","0","0","0","0","0","0","F","1","3620","0"
"37","37","122316","03:40:24","272","272","4.0.9.0","1","1","demographics","age","0","0","0","0","0","0","37","1","3599","0"
"38","38","122316","03:40:24","272","272","4.0.9.0","1","2","demographics","gender","0","0","0","0","0","0","male","1","5193","0"
"39","39","122216","22:39:34","274","274","4.0.9.0","1","1","demographics","age","0","0","0","0","0","0","23","1","6524","0"
"40","40","122216","22:39:34","274","274","4.0.9.0","1","2","demographics","gender","0","0","0","0","0","0","male","1","3188","0"
"41","41","122216","22:39:20","273","273","4.0.9.0","1","1","demographics","age","0","0","0","0","0","0","24","1","6016","0"
"42","42","122216","22:39:20","273","273","4.0.9.0","1","2","demographics","gender","0","0","0","0","0","0","Female","1","2415","0"
"43","43","122216","22:38:39","271","271","4.0.9.0","1","1","demographics","age","0","0","0","0","0","0","24","1","4605","0"
"44","44","122216","22:38:39","271","271","4.0.9.0","1","2","demographics","gender","0","0","0","0","0","0","24","1","2529","0"
"45","45","122216","22:36:07","268","268","4.0.9.0","1","1","demographics","age","0","0","0","0","0","0","56","1","10379","0"
"46","46","122216","22:36:07","268","268","4.0.9.0","1","2","demographics","gender","0","0","0","0","0","0","male","1","5004","0"
"47","47","122216","20:36:50","269","269","4.0.9.0","1","1","demographics","age","0","0","0","0","0","0","33","1","3468","0"
"48","48","122216","20:36:50","269","269","4.0.9.0","1","2","demographics","gender","0","0","0","0","0","0","m","1","1752","0"
"49","49","122316","02:45:08","266","266","4.0.9.0","1","1","demographics","age","0","0","0","0","0","0","47","1","4943","0"
"50","50","122316","02:45:08","266","266","4.0.9.0","1","2","demographics","gender","0","0","0","0","0","0","male","1","6512","0"
"51","51","122216","18:07:11","264","264","4.0.9.0","1","1","demographics","age","0","0","0","0","0","0","25 ","1","3419","0"
"52","52","122216","18:07:11","264","264","4.0.9.0","1","2","demographics","gender","0","0","0","0","0","0","male","1","3157","0"
"53","53","122216","21:03:50","260","260","4.0.9.0","1","1","demographics","age","0","0","0","0","0","0","25","1","2917","0"
"54","54","122216","21:03:50","260","260","4.0.9.0","1","2","demographics","gender","0","0","0","0","0","0","Male","1","2666","0"
"55","55","122216","21:03:48","259","259","4.0.9.0","1","1","demographics","age","0","0","0","0","0","0","30","1","5565","0"
"56","56","122216","21:03:48","259","259","4.0.9.0","1","2","demographics","gender","0","0","0","0","0","0","Female","1","3150","0"
"57","57","122216","21:00:07","256","256","4.0.9.0","1","1","demographics","age","0","0","0","0","0","0","21 ","1","4366","0"
"58","58","122216","21:00:07","256","256","4.0.9.0","1","2","demographics","gender","0","0","0","0","0","0","Female","1","4506","0"
"59","59","122216","20:59:17","251","251","4.0.9.0","1","1","demographics","age","0","0","0","0","0","0","27","1","4936","0"
"60","60","122216","20:59:17","251","251","4.0.9.0","1","2","demographics","gender","0","0","0","0","0","0","Male","1","3615","0"
"61","61","122216","19:59:16","250","250","4.0.9.0","1","1","demographics","age","0","0","0","0","0","0","50","1","4235","0"
"62","62","122216","19:59:16","250","250","4.0.9.0","1","2","demographics","gender","0","0","0","0","0","0","female","1","4247","0"
"63","63","122216","19:59:13","252","252","4.0.9.0","1","1","demographics","age","0","0","0","0","0","0","29","1","2884","0"
"64","64","122216","19:59:13","252","252","4.0.9.0","1","2","demographics","gender","0","0","0","0","0","0","Male","1","3385","0"
"65","65","122216","19:58:28","252","252","4.0.9.0","1","1","demographics","age","0","0","0","0","0","0","29","1","6466","0"
"66","66","122216","19:58:28","252","252","4.0.9.0","1","2","demographics","gender","0","0","0","0","0","0","Male","1","4233","0"
"67","67","122216","20:57:56","247","247","4.0.9.0","1","1","demographics","age","0","0","0","0","0","0","26","1","1990","0"
"68","68","122216","20:57:56","247","247","4.0.9.0","1","2","demographics","gender","0","0","0","0","0","0","male","1","3348","0"
"69","69","122216","19:57:29","250","250","4.0.9.0","1","1","demographics","age","0","0","0","0","0","0","50","1","5388","0"
"70","70","122216","19:57:29","250","250","4.0.9.0","1","2","demographics","gender","0","0","0","0","0","0","female","1","5634","0"
"71","71","122216","20:57:42","249","249","4.0.9.0","1","1","demographics","age","0","0","0","0","0","0","33","1","5697","0"
"72","72","122216","20:57:42","249","249","4.0.9.0","1","2","demographics","gender","0","0","0","0","0","0","f","1","6161","0"
"73","73","122216","20:55:49","247","247","4.0.9.0","1","1","demographics","age","0","0","0","0","0","0","26","1","2855","0"
"74","74","122216","20:55:49","247","247","4.0.9.0","1","2","demographics","gender","0","0","0","0","0","0","male","1","3729","0"
"75","75","122216","20:55:10","248","248","4.0.9.0","1","1","demographics","age","0","0","0","0","0","0","43","1","10327","0"
"76","76","122216","20:55:10","248","248","4.0.9.0","1","2","demographics","gender","0","0","0","0","0","0","Female","1","6763","0"
"77","77","122216","20:54:09","244","244","4.0.9.0","1","1","demographics","age","0","0","0","0","0","0","33","1","4407","0"
"78","78","122216","20:54:09","244","244","4.0.9.0","1","2","demographics","gender","0","0","0","0","0","0","male","1","7747","0"
"79","79","122316","01:54:22","245","245","4.0.9.0","1","1","demographics","age","0","0","0","0","0","0","34","1","3927","0"
"80","80","122316","01:54:22","245","245","4.0.9.0","1","2","demographics","gender","0","0","0","0","0","0","female","1","4163","0"
"81","81","122316","12:52:42","242","242","4.0.9.0","1","1","demographics","age","0","0","0","0","0","0","21","1","4938","0"
"82","82","122316","12:52:42","242","242","4.0.9.0","1","2","demographics","gender","0","0","0","0","0","0","Male","1","1678","0"
"83","83","122216","20:53:28","243","243","4.0.9.0","1","1","demographics","age","0","0","0","0","0","0","30 ","1","3473","0"
"84","84","122216","20:53:28","243","243","4.0.9.0","1","2","demographics","gender","0","0","0","0","0","0","male","1","5028","0"
"85","85","122216","19:51:06","238","238","4.0.9.0","1","1","demographics","age","0","0","0","0","0","0","33","1","3130","0"
"86","86","122216","19:51:06","238","238","4.0.9.0","1","2","demographics","gender","0","0","0","0","0","0","Male","1","6040","0"
"87","87","122216","20:50:30","241","241","4.0.9.0","1","1","demographics","age","0","0","0","0","0","0","34","1","2432","0"
"88","88","122216","20:50:30","241","241","4.0.9.0","1","2","demographics","gender","0","0","0","0","0","0","male","1","2648","0"
"89","89","122216","19:50:13","240","240","4.0.9.0","1","1","demographics","age","0","0","0","0","0","0","18","1","3829","0"
"90","90","122216","19:50:13","240","240","4.0.9.0","1","2","demographics","gender","0","0","0","0","0","0","female","1","5442","0"
"91","91","122216","17:48:40","237","237","4.0.9.0","1","1","demographics","age","0","0","0","0","0","0","46","1","5524","0"
"92","92","122216","17:48:40","237","237","4.0.9.0","1","2","demographics","gender","0","0","0","0","0","0","Female","1","4101","0"
"93","93","122316","01:46:48","226","226","4.0.9.0","1","1","demographics","age","0","0","0","0","0","0","44","1","14619","0"
"94","94","122316","01:46:48","226","226","4.0.9.0","1","2","demographics","gender","0","0","0","0","0","0","male","1","31178","0"
"95","95","122216","20:47:33","236","236","4.0.9.0","1","1","demographics","age","0","0","0","0","0","0","25","1","9424","0"
"96","96","122216","20:47:33","236","236","4.0.9.0","1","2","demographics","gender","0","0","0","0","0","0","Female","1","7893","0"
"97","97","122216","17:47:11","237","237","4.0.9.0","1","1","demographics","age","0","0","0","0","0","0","46","1","12468","0"
"98","98","122216","17:47:11","237","237","4.0.9.0","1","2","demographics","gender","0","0","0","0","0","0","Female","1","4083","0"
"99","99","122216","20:46:00","230","230","4.0.9.0","1","1","demographics","age","0","0","0","0","0","0","18","1","4606","0"
"100","100","122216","20:46:00","230","230","4.0.9.0","1","2","demographics","gender","0","0","0","0","0","0","Male","1","7727","0"
"101","101","122316","01:47:07","232","232","4.0.9.0","1","1","demographics","age","0","0","0","0","0","0","22","1","5697","0"
"102","102","122316","01:47:07","232","232","4.0.9.0","1","2","demographics","gender","0","0","0","0","0","0","male","1","5860","0"
"103","103","122216","20:45:33","228","228","4.0.9.0","1","1","demographics","age","0","0","0","0","0","0","34","1","6199","0"
"104","104","122216","20:45:33","228","228","4.0.9.0","1","2","demographics","gender","0","0","0","0","0","0","male","1","3079","0"
"105","105","122216","19:44:31","225","225","4.0.9.0","1","1","demographics","age","0","0","0","0","0","0","26","1","3712","0"
"106","106","122216","19:44:31","225","225","4.0.9.0","1","2","demographics","gender","0","0","0","0","0","0","female","1","4792","0"
"107","107","122216","20:42:01","221","221","4.0.9.0","1","1","demographics","age","0","0","0","0","0","0","20","1","3452","0"
"108","108","122216","20:42:01","221","221","4.0.9.0","1","2","demographics","gender","0","0","0","0","0","0","female","1","3116","0"
"109","109","122316","01:40:16","222","222","4.0.9.0","1","1","demographics","age","0","0","0","0","0","0","25","1","4422","0"
"110","110","122316","01:40:16","222","222","4.0.9.0","1","2","demographics","gender","0","0","0","0","0","0","Male","1","5298","0"
"111","111","122216","17:39:34","220","220","4.0.9.0","1","1","demographics","age","0","0","0","0","0","0","32","1","3816","0"
"112","112","122216","17:39:34","220","220","4.0.9.0","1","2","demographics","gender","0","0","0","0","0","0","Male","1","4837","0"
"113","113","122216","20:38:02","218","218","4.0.9.0","1","1","demographics","age","0","0","0","0","0","0","30","1","5662","0"
"114","114","122216","20:38:02","218","218","4.0.9.0","1","2","demographics","gender","0","0","0","0","0","0","Female","1","3957","0"
"115","115","122216","19:37:50","217","217","4.0.9.0","1","1","demographics","age","0","0","0","0","0","0","44","1","3135","0"
"116","116","122216","19:37:50","217","217","4.0.9.0","1","2","demographics","gender","0","0","0","0","0","0","Male","1","5668","0"
"117","117","122216","20:34:58","216","216","4.0.9.0","1","1","demographics","age","0","0","0","0","0","0","33","1","2577","0"
"118","118","122216","20:34:58","216","216","4.0.9.0","1","2","demographics","gender","0","0","0","0","0","0","33","1","15614","0"
"119","119","122216","20:34:51","214","214","4.0.9.0","1","1","demographics","age","0","0","0","0","0","0","22","1","5382","0"
"120","120","122216","20:34:51","214","214","4.0.9.0","1","2","demographics","gender","0","0","0","0","0","0","Male","1","11148","0"
"121","121","122216","19:33:54","213","213","4.0.9.0","1","1","demographics","age","0","0","0","0","0","0","23","1","7164","0"
"122","122","122216","19:33:54","213","213","4.0.9.0","1","2","demographics","gender","0","0","0","0","0","0","Female","1","3875","0"
"123","123","122316","01:33:19","212","212","4.0.9.0","1","1","demographics","age","0","0","0","0","0","0","25","1","6558","0"
"124","124","122316","01:33:19","212","212","4.0.9.0","1","2","demographics","gender","0","0","0","0","0","0","Female","1","3478","0"
"125","125","122316","08:32:18","196","196","4.0.9.0","1","1","demographics","age","0","0","0","0","0","0","39","1","6567","0"
"126","126","122316","08:32:18","196","196","4.0.9.0","1","2","demographics","gender","0","0","0","0","0","0","male","1","4379","0"
"127","127","122216","19:31:00","211","211","4.0.9.0","1","1","demographics","age","0","0","0","0","0","0","18","1","2538","0"
"128","128","122216","19:31:00","211","211","4.0.9.0","1","2","demographics","gender","0","0","0","0","0","0","male","1","2951","0"
"129","129","122216","18:30:23","207","207","4.0.9.0","1","1","demographics","age","0","0","0","0","0","0","36","1","4703","0"
"130","130","122216","18:30:23","207","207","4.0.9.0","1","2","demographics","gender","0","0","0","0","0","0","Male","1","2892","0"
"131","131","122216","19:30:13","206","206","4.0.9.0","1","1","demographics","age","0","0","0","0","0","0","36","1","5494","0"
"132","132","122216","19:30:13","206","206","4.0.9.0","1","2","demographics","gender","0","0","0","0","0","0","Male","1","4427","0"
"133","133","122216","19:29:58","205","205","4.0.9.0","1","1","demographics","age","0","0","0","0","0","0","33","1","3782","0"
"134","134","122216","19:29:58","205","205","4.0.9.0","1","2","demographics","gender","0","0","0","0","0","0","Male","1","3294","0"
"135","135","122216","20:29:56","209","209","4.0.9.0","1","1","demographics","age","0","0","0","0","0","0","34","1","2629","0"
"136","136","122216","20:29:56","209","209","4.0.9.0","1","2","demographics","gender","0","0","0","0","0","0","male","1","2533","0"
"137","137","122216","20:27:37","202","202","4.0.9.0","1","1","demographics","age","0","0","0","0","0","0","40","1","4065","0"
"138","138","122216","20:27:37","202","202","4.0.9.0","1","2","demographics","gender","0","0","0","0","0","0","Male","1","5913","0"
"139","139","122316","01:26:28","194","194","4.0.9.0","1","1","demographics","age","0","0","0","0","0","0","22","1","23733","0"
"140","140","122316","01:26:28","194","194","4.0.9.0","1","2","demographics","gender","0","0","0","0","0","0","male","1","4112","0"
"141","141","122216","20:27:02","200","200","4.0.9.0","1","1","demographics","age","0","0","0","0","0","0","18","1","6857","0"
"142","142","122216","20:27:02","200","200","4.0.9.0","1","2","demographics","gender","0","0","0","0","0","0","Female","1","5303","0"
"143","143","122316","01:26:05","197","197","4.0.9.0","1","1","demographics","age","0","0","0","0","0","0","20","1","8117","0"
"144","144","122316","01:26:05","197","197","4.0.9.0","1","2","demographics","gender","0","0","0","0","0","0","Male","1","3413","0"
"145","145","122216","20:24:22","190","190","4.0.9.0","1","1","demographics","age","0","0","0","0","0","0","32","1","3098","0"
"146","146","122216","20:24:22","190","190","4.0.9.0","1","2","demographics","gender","0","0","0","0","0","0","Female","1","3516","0"
"147","147","122316","08:24:20","196","196","4.0.9.0","1","1","demographics","age","0","0","0","0","0","0","39","1","6209","0"
"148","148","122316","08:24:20","196","196","4.0.9.0","1","2","demographics","gender","0","0","0","0","0","0","Male","1","5362","0"
"149","149","122316","01:23:05","184","184","4.0.9.0","1","1","demographics","age","0","0","0","0","0","0","18","1","5211","0"
"150","150","122316","01:23:05","184","184","4.0.9.0","1","2","demographics","gender","0","0","0","0","0","0","Male","1","6107","0"
"151","151","122216","19:22:38","192","192","4.0.9.0","1","1","demographics","age","0","0","0","0","0","0","18 ","1","5730","0"
"152","152","122216","19:22:38","192","192","4.0.9.0","1","2","demographics","gender","0","0","0","0","0","0","nonbinary","1","17796","0"
"153","153","122316","01:19:40","182","182","4.0.9.0","1","1","demographics","age","0","0","0","0","0","0","37","1","3682","0"
"154","154","122316","01:19:40","182","182","4.0.9.0","1","2","demographics","gender","0","0","0","0","0","0","female","1","7928","0"
"155","155","122316","01:19:04","178","178","4.0.9.0","1","1","demographics","age","0","0","0","0","0","0","44","1","6674","0"
"156","156","122316","01:19:04","178","178","4.0.9.0","1","2","demographics","gender","0","0","0","0","0","0","Male","1","4405","0"
"157","157","122216","20:19:04","179","179","4.0.9.0","1","1","demographics","age","0","0","0","0","0","0","28","1","4375","0"
"158","158","122216","20:19:04","179","179","4.0.9.0","1","2","demographics","gender","0","0","0","0","0","0","female","1","3971","0"
"159","159","122316","01:18:38","172","172","4.0.9.0","1","1","demographics","age","0","0","0","0","0","0","29","1","4362","0"
"160","160","122316","01:18:38","172","172","4.0.9.0","1","2","demographics","gender","0","0","0","0","0","0","Female","1","5277","0"
"161","161","122216","20:18:01","174","174","4.0.9.0","1","1","demographics","age","0","0","0","0","0","0","57","1","8904","0"
"162","162","122216","20:18:01","174","174","4.0.9.0","1","2","demographics","gender","0","0","0","0","0","0","male","1","10993","0"
"163","163","122216","20:14:38","163","163","4.0.9.0","1","1","demographics","age","0","0","0","0","0","0","20","1","4209","0"
"164","164","122216","20:14:38","163","163","4.0.9.0","1","2","demographics","gender","0","0","0","0","0","0","Female","1","3151","0"
"165","165","122216","20:14:46","166","166","4.0.9.0","1","1","demographics","age","0","0","0","0","0","0","30","1","4341","0"
"166","166","122216","20:14:46","166","166","4.0.9.0","1","2","demographics","gender","0","0","0","0","0","0","male","1","4323","0"
"167","167","122216","20:13:54","165","165","4.0.9.0","1","1","demographics","age","0","0","0","0","0","0","18","1","5253","0"
"168","168","122216","20:13:54","165","165","4.0.9.0","1","2","demographics","gender","0","0","0","0","0","0","Male","1","4584","0"
"169","169","122216","20:13:41","163","163","4.0.9.0","1","1","demographics","age","0","0","0","0","0","0","20","1","3392","0"
"170","170","122216","20:13:41","163","163","4.0.9.0","1","2","demographics","gender","0","0","0","0","0","0","Female","1","4155","0"
"171","171","122216","17:13:16","162","162","4.0.9.0","1","1","demographics","age","0","0","0","0","0","0","44","1","4443","0"
"172","172","122216","17:13:16","162","162","4.0.9.0","1","2","demographics","gender","0","0","0","0","0","0","Male","1","5655","0"
"173","173","122216","17:12:16","161","161","4.0.9.0","1","1","demographics","age","0","0","0","0","0","0","19","1","7379","0"
"174","174","122216","17:12:16","161","161","4.0.9.0","1","2","demographics","gender","0","0","0","0","0","0","Male","1","3471","0"
"175","175","122216","20:11:09","159","159","4.0.9.0","1","1","demographics","age","0","0","0","0","0","0","30","1","5052","0"
"176","176","122216","20:11:09","159","159","4.0.9.0","1","2","demographics","gender","0","0","0","0","0","0","female","1","2504","0"
"177","177","122216","17:11:00","160","160","4.0.9.0","1","1","demographics","age","0","0","0","0","0","0","19","1","3498","0"
"178","178","122216","17:11:00","160","160","4.0.9.0","1","2","demographics","gender","0","0","0","0","0","0","Male","1","3250","0"
"179","179","122216","17:10:40","156","156","4.0.9.0","1","1","demographics","age","0","0","0","0","0","0","22","1","7060","0"
"180","180","122216","17:10:40","156","156","4.0.9.0","1","2","demographics","gender","0","0","0","0","0","0","Male","1","4164","0"
"181","181","122216","20:10:59","155","155","4.0.9.0","1","1","demographics","age","0","0","0","0","0","0","52","1","5230","0"
"182","182","122216","20:10:59","155","155","4.0.9.0","1","2","demographics","gender","0","0","0","0","0","0","female","1","6804","0"
"183","183","122216","17:10:14","158","158","4.0.9.0","1","1","demographics","age","0","0","0","0","0","0","18","1","9655","0"
"184","184","122216","17:10:14","158","158","4.0.9.0","1","2","demographics","gender","0","0","0","0","0","0","male","1","3434","0"
"185","185","122216","20:06:21","151","151","4.0.9.0","1","1","demographics","age","0","0","0","0","0","0","46","1","4981","0"
"186","186","122216","20:06:21","151","151","4.0.9.0","1","2","demographics","gender","0","0","0","0","0","0","male","1","3417","0"
"187","187","122216","20:05:47","140","140","4.0.9.0","1","1","demographics","age","0","0","0","0","0","0","57","1","3803","0"
"188","188","122216","20:05:47","140","140","4.0.9.0","1","2","demographics","gender","0","0","0","0","0","0","male","1","5632","0"
"189","189","122216","19:06:39","150","150","4.0.9.0","1","1","demographics","age","0","0","0","0","0","0","54","1","5486","0"
"190","190","122216","19:06:39","150","150","4.0.9.0","1","2","demographics","gender","0","0","0","0","0","0","Male","1","4537","0"
"191","191","122216","20:06:19","145","145","4.0.9.0","1","1","demographics","age","0","0","0","0","0","0","36","1","15436","0"
"192","192","122216","20:06:19","145","145","4.0.9.0","1","2","demographics","gender","0","0","0","0","0","0","Male","1","3624","0"
"193","193","122216","17:05:06","107","107","4.0.9.0","1","1","demographics","age","0","0","0","0","0","0","27 ","1","15517","0"
"194","194","122216","17:05:06","107","107","4.0.9.0","1","2","demographics","gender","0","0","0","0","0","0","male","1","12424","0"
"195","195","122316","01:06:32","149","149","4.0.9.0","1","1","demographics","age","0","0","0","0","0","0","18","1","3840","0"
"196","196","122316","01:06:32","149","149","4.0.9.0","1","2","demographics","gender","0","0","0","0","0","0","male","1","5514","0"
"197","197","122316","01:05:46","146","146","4.0.9.0","1","1","demographics","age","0","0","0","0","0","0","19","1","6353","0"
"198","198","122316","01:05:46","146","146","4.0.9.0","1","2","demographics","gender","0","0","0","0","0","0","Male","1","3568","0"
"199","199","122316","01:05:56","142","142","4.0.9.0","1","1","demographics","age","0","0","0","0","0","0","32","1","3073","0"
"200","200","122316","01:05:56","142","142","4.0.9.0","1","2","demographics","gender","0","0","0","0","0","0","Male","1","2873","0"
"201","201","122316","00:59:23","147","147","4.0.9.0","1","1","demographics","age","0","0","0","0","0","0","21","1","2272","0"
"202","202","122316","00:59:23","147","147","4.0.9.0","1","2","demographics","gender","0","0","0","0","0","0","male","1","2970","0"
"203","203","122216","20:05:38","143","143","4.0.9.0","1","1","demographics","age","0","0","0","0","0","0","63","1","4405","0"
"204","204","122216","20:05:38","143","143","4.0.9.0","1","2","demographics","gender","0","0","0","0","0","0","f","1","3615","0"
"205","205","122316","01:04:20","117","117","4.0.9.0","1","1","demographics","age","0","0","0","0","0","0","52","1","9163","0"
"206","206","122316","01:04:20","117","117","4.0.9.0","1","2","demographics","gender","0","0","0","0","0","0","male","1","8720","0"
"207","207","122216","20:04:30","137","137","4.0.9.0","1","1","demographics","age","0","0","0","0","0","0","25","1","4641","0"
"208","208","122216","20:04:30","137","137","4.0.9.0","1","2","demographics","gender","0","0","0","0","0","0","female","1","3401","0"
"209","209","122216","20:03:42","134","134","4.0.9.0","1","1","demographics","age","0","0","0","0","0","0","28","1","3262","0"
"210","210","122216","20:03:42","134","134","4.0.9.0","1","2","demographics","gender","0","0","0","0","0","0","Male","1","5732","0"
"211","211","122216","19:01:24","121","121","4.0.9.0","1","1","demographics","age","0","0","0","0","0","0","63","1","5440","0"
"212","212","122216","19:01:24","121","121","4.0.9.0","1","2","demographics","gender","0","0","0","0","0","0","Male","1","6974","0"
"213","213","122216","17:03:11","132","132","4.0.9.0","1","1","demographics","age","0","0","0","0","0","0","48","1","2962","0"
"214","214","122216","17:03:11","132","132","4.0.9.0","1","2","demographics","gender","0","0","0","0","0","0","male","1","3819","0"
"215","215","122216","17:03:16","131","131","4.0.9.0","1","1","demographics","age","0","0","0","0","0","0","53","1","4739","0"
"216","216","122216","17:03:16","131","131","4.0.9.0","1","2","demographics","gender","0","0","0","0","0","0","male","1","3500","0"
"217","217","122316","01:02:29","129","129","4.0.9.0","1","1","demographics","age","0","0","0","0","0","0","52","1","7379","0"
"218","218","122316","01:02:29","129","129","4.0.9.0","1","2","demographics","gender","0","0","0","0","0","0","male","1","5568","0"
"219","219","122216","20:02:24","130","130","4.0.9.0","1","1","demographics","age","0","0","0","0","0","0","23","1","1908","0"
"220","220","122216","20:02:24","130","130","4.0.9.0","1","2","demographics","gender","0","0","0","0","0","0","Male","1","3296","0"
"221","221","122216","19:01:51","106","106","4.0.9.0","1","1","demographics","age","0","0","0","0","0","0","55","1","3406","0"
"222","222","122216","19:01:51","106","106","4.0.9.0","1","2","demographics","gender","0","0","0","0","0","0","female","1","9414","0"
"223","223","122216","20:01:48","128","128","4.0.9.0","1","1","demographics","age","0","0","0","0","0","0","28","1","2525","0"
"224","224","122216","20:01:48","128","128","4.0.9.0","1","2","demographics","gender","0","0","0","0","0","0","male","1","4048","0"
"225","225","122216","20:01:19","125","125","4.0.9.0","1","1","demographics","age","0","0","0","0","0","0","37","1","8213","0"
"226","226","122216","20:01:19","125","125","4.0.9.0","1","2","demographics","gender","0","0","0","0","0","0","male","1","3080","0"
"227","227","122216","19:59:29","120","120","4.0.9.0","1","1","demographics","age","0","0","0","0","0","0","28 ","1","12071","0"
"228","228","122216","19:59:29","120","120","4.0.9.0","1","2","demographics","gender","0","0","0","0","0","0","Male","1","5109","0"
"229","229","122216","20:00:40","112","112","4.0.9.0","1","1","demographics","age","0","0","0","0","0","0","35","1","3511","0"
"230","230","122216","20:00:40","112","112","4.0.9.0","1","2","demographics","gender","0","0","0","0","0","0","Male","1","4043","0"
"231","231","122216","19:00:09","118","118","4.0.9.0","1","1","demographics","age","0","0","0","0","0","0","20","1","4968","0"
"232","232","122216","19:00:09","118","118","4.0.9.0","1","2","demographics","gender","0","0","0","0","0","0","Male","1","3135","0"
"233","233","122216","19:59:14","116","116","4.0.9.0","1","1","demographics","age","0","0","0","0","0","0","25","1","6185","0"
"234","234","122216","19:59:14","116","116","4.0.9.0","1","2","demographics","gender","0","0","0","0","0","0","Male","1","8904","0"
"235","235","122216","19:58:32","112","112","4.0.9.0","1","1","demographics","age","0","0","0","0","0","0","35","1","4453","0"
"236","236","122216","19:58:32","112","112","4.0.9.0","1","2","demographics","gender","0","0","0","0","0","0","Male","1","4601","0"
"237","237","122316","00:58:56","115","115","4.0.9.0","1","1","demographics","age","0","0","0","0","0","0","18","1","3682","0"
"238","238","122316","00:58:56","115","115","4.0.9.0","1","2","demographics","gender","0","0","0","0","0","0","Female","1","4825","0"
"239","239","122316","00:59:03","119","119","4.0.9.0","1","1","demographics","age","0","0","0","0","0","0","30","1","3015","0"
"240","240","122316","00:59:03","119","119","4.0.9.0","1","2","demographics","gender","0","0","0","0","0","0","Male","1","4424","0"
"241","241","122316","00:58:30","114","114","4.0.9.0","1","1","demographics","age","0","0","0","0","0","0","25","1","3436","0"
"242","242","122316","00:58:30","114","114","4.0.9.0","1","2","demographics","gender","0","0","0","0","0","0","male","1","3686","0"
"243","243","122216","19:58:22","113","113","4.0.9.0","1","1","demographics","age","0","0","0","0","0","0","21","1","5238","0"
"244","244","122216","19:58:22","113","113","4.0.9.0","1","2","demographics","gender","0","0","0","0","0","0","female","1","4255","0"
"245","245","122316","00:57:54","110","110","4.0.9.0","1","1","demographics","age","0","0","0","0","0","0","18","1","14460","0"
"246","246","122316","00:57:54","110","110","4.0.9.0","1","2","demographics","gender","0","0","0","0","0","0","Female","1","3119","0"
"247","247","122216","19:55:49","109","109","4.0.9.0","1","1","demographics","age","0","0","0","0","0","0","51","1","3435","0"
"248","248","122216","19:55:49","109","109","4.0.9.0","1","2","demographics","gender","0","0","0","0","0","0","female","1","6053","0"
"249","249","122316","00:54:08","104","104","4.0.9.0","1","1","demographics","age","0","0","0","0","0","0","37","1","3322","0"
"250","250","122316","00:54:08","104","104","4.0.9.0","1","2","demographics","gender","0","0","0","0","0","0","Male","1","6523","0"
"251","251","122316","00:48:30","90","90","4.0.9.0","1","1","demographics","age","0","0","0","0","0","0","50","1","6841","0"
"252","252","122316","00:48:30","90","90","4.0.9.0","1","2","demographics","gender","0","0","0","0","0","0","male","1","5960","0"
"253","253","122316","01:47:14","89","89","4.0.9.0","1","1","demographics","age","0","0","0","0","0","0","22","1","4174","0"
"254","254","122316","01:47:14","89","89","4.0.9.0","1","2","demographics","gender","0","0","0","0","0","0","female","1","4976","0"
"255","255","122216","18:46:58","93","93","4.0.9.0","1","1","demographics","age","0","0","0","0","0","0","32","1","2681","0"
"256","256","122216","18:46:58","93","93","4.0.9.0","1","2","demographics","gender","0","0","0","0","0","0","male","1","3452","0"
"257","257","122216","19:46:42","92","92","4.0.9.0","1","1","demographics","age","0","0","0","0","0","0","34","1","8095","0"
"258","258","122216","19:46:42","92","92","4.0.9.0","1","2","demographics","gender","0","0","0","0","0","0","male","1","3627","0"
"259","259","122216","19:45:42","88","88","4.0.9.0","1","1","demographics","age","0","0","0","0","0","0","18","1","4554","0"
"260","260","122216","19:45:42","88","88","4.0.9.0","1","2","demographics","gender","0","0","0","0","0","0","Female","1","3267","0"
"261","261","122316","10:45:57","87","87","4.0.9.0","1","1","demographics","age","0","0","0","0","0","0","27","1","6863","0"
"262","262","122316","10:45:57","87","87","4.0.9.0","1","2","demographics","gender","0","0","0","0","0","0","Male","1","3405","0"
"263","263","122216","18:42:15","86","86","4.0.9.0","1","1","demographics","age","0","0","0","0","0","0","30","1","2701","0"
"264","264","122216","18:42:15","86","86","4.0.9.0","1","2","demographics","gender","0","0","0","0","0","0","Male","1","40956","0"
"265","265","122216","18:41:13","85","85","4.0.9.0","1","1","demographics","age","0","0","0","0","0","0","30 ","1","5478","0"
"266","266","122216","18:41:13","85","85","4.0.9.0","1","2","demographics","gender","0","0","0","0","0","0","female","1","8363","0"
"267","267","122216","19:41:08","80","80","4.0.9.0","1","1","demographics","age","0","0","0","0","0","0","52","1","7768","0"
"268","268","122216","19:41:08","80","80","4.0.9.0","1","2","demographics","gender","0","0","0","0","0","0","male","1","5795","0"
"269","269","122316","00:41:07","84","84","4.0.9.0","1","1","demographics","age","0","0","0","0","0","0","20","1","4216","0"
"270","270","122316","00:41:07","84","84","4.0.9.0","1","2","demographics","gender","0","0","0","0","0","0","Male","1","4327","0"
"271","271","122216","19:40:35","83","83","4.0.9.0","1","1","demographics","age","0","0","0","0","0","0","40","1","5078","0"
"272","272","122216","19:40:35","83","83","4.0.9.0","1","2","demographics","gender","0","0","0","0","0","0","female","1","7158","0"
"273","273","122216","18:40:22","82","82","4.0.9.0","1","1","demographics","age","0","0","0","0","0","0","34","1","3759","0"
"274","274","122216","18:40:22","82","82","4.0.9.0","1","2","demographics","gender","0","0","0","0","0","0","Male","1","3094","0"
"275","275","122316","00:38:59","76","76","4.0.9.0","1","1","demographics","age","0","0","0","0","0","0","43","1","4937","0"
"276","276","122316","00:38:59","76","76","4.0.9.0","1","2","demographics","gender","0","0","0","0","0","0","Male","1","3684","0"
"277","277","122216","19:38:32","78","78","4.0.9.0","1","1","demographics","age","0","0","0","0","0","0","26","1","2967","0"
"278","278","122216","19:38:32","78","78","4.0.9.0","1","2","demographics","gender","0","0","0","0","0","0","male","1","3075","0"
"279","279","122316","00:33:50","61","61","4.0.9.0","1","1","demographics","age","0","0","0","0","0","0","36","1","4234","0"
"280","280","122316","00:33:50","61","61","4.0.9.0","1","2","demographics","gender","0","0","0","0","0","0","female","1","3739","0"
"281","281","122216","19:36:26","70","70","4.0.9.0","1","1","demographics","age","0","0","0","0","0","0","37","1","5051","0"
"282","282","122216","19:36:26","70","70","4.0.9.0","1","2","demographics","gender","0","0","0","0","0","0","Male","1","3386","0"
"283","283","122216","17:32:41","68","68","4.0.9.0","1","1","demographics","age","0","0","0","0","0","0","48","1","4210","0"
"284","284","122216","17:32:41","68","68","4.0.9.0","1","2","demographics","gender","0","0","0","0","0","0","female","1","10980","0"
"285","285","122316","00:35:24","69","69","4.0.9.0","1","1","demographics","age","0","0","0","0","0","0","37","1","9175","0"
"286","286","122316","00:35:24","69","69","4.0.9.0","1","2","demographics","gender","0","0","0","0","0","0","Male","1","7305","0"
"287","287","122316","00:34:41","64","64","4.0.9.0","1","1","demographics","age","0","0","0","0","0","0","43","1","9027","0"
"288","288","122316","00:34:41","64","64","4.0.9.0","1","2","demographics","gender","0","0","0","0","0","0","Male","1","5605","0"
"289","289","122316","00:33:44","58","58","4.0.9.0","1","1","demographics","age","0","0","0","0","0","0","27","1","4336","0"
"290","290","122316","00:33:44","58","58","4.0.9.0","1","2","demographics","gender","0","0","0","0","0","0","Feminine","1","11192","0"
"291","291","122216","18:31:33","59","59","4.0.9.0","1","1","demographics","age","0","0","0","0","0","0","32","1","5184","0"
"292","292","122216","18:31:33","59","59","4.0.9.0","1","2","demographics","gender","0","0","0","0","0","0","Male","1","3302","0"
"293","293","122216","17:30:37","56","56","4.0.9.0","1","1","demographics","age","0","0","0","0","0","0","36","1","7093","0"
"294","294","122216","17:30:37","56","56","4.0.9.0","1","2","demographics","gender","0","0","0","0","0","0","Male","1","3358","0"
"295","295","122216","19:31:31","55","55","4.0.9.0","1","1","demographics","age","0","0","0","0","0","0","33","1","5603","0"
"296","296","122216","19:31:31","55","55","4.0.9.0","1","2","demographics","gender","0","0","0","0","0","0","F","1","2140","0"
"297","297","122216","18:26:09","46","46","4.0.9.0","1","1","demographics","age","0","0","0","0","0","0","31","1","4459","0"
"298","298","122216","18:26:09","46","46","4.0.9.0","1","2","demographics","gender","0","0","0","0","0","0","Male","1","3789","0"
"299","299","122216","16:25:46","47","47","4.0.9.0","1","1","demographics","age","0","0","0","0","0","0","39","1","8622","0"
"300","300","122216","16:25:46","47","47","4.0.9.0","1","2","demographics","gender","0","0","0","0","0","0","Male","1","4100","0"
"301","301","122216","19:17:41","38","38","4.0.9.0","1","1","demographics","age","0","0","0","0","0","0","36","1","11283","0"
"302","302","122216","19:17:41","38","38","4.0.9.0","1","2","demographics","gender","0","0","0","0","0","0","M","1","3734","0"
"303","303","122216","19:16:03","37","37","4.0.9.0","1","1","demographics","age","0","0","0","0","0","0","18 ","1","4544","0"
"304","304","122216","19:16:03","37","37","4.0.9.0","1","2","demographics","gender","0","0","0","0","0","0","Female","1","3790","0"
"305","305","122316","00:15:06","36","36","4.0.9.0","1","1","demographics","age","0","0","0","0","0","0","28","1","7235","0"
"306","306","122316","00:15:06","36","36","4.0.9.0","1","2","demographics","gender","0","0","0","0","0","0","female","1","3369","0"
"307","307","122216","16:13:37","34","34","4.0.9.0","1","1","demographics","age","0","0","0","0","0","0","30","1","4993","0"
"308","308","122216","16:13:37","34","34","4.0.9.0","1","2","demographics","gender","0","0","0","0","0","0","Female","1","3481","0"
"309","309","122216","19:11:25","24","24","4.0.9.0","1","1","demographics","age","0","0","0","0","0","0","33","1","5641","0"
"310","310","122216","19:11:25","24","24","4.0.9.0","1","2","demographics","gender","0","0","0","0","0","0","Female","1","4577","0"
"311","311","122316","00:08:54","29","29","4.0.9.0","1","1","demographics","age","0","0","0","0","0","0","40","1","9152","0"
"312","312","122316","00:08:54","29","29","4.0.9.0","1","2","demographics","gender","0","0","0","0","0","0","female","1","6635","0"
"313","313","122216","18:07:35","27","27","4.0.9.0","1","1","demographics","age","0","0","0","0","0","0","23","1","4069","0"
"314","314","122216","18:07:35","27","27","4.0.9.0","1","2","demographics","gender","0","0","0","0","0","0","Male","1","3567","0"
"315","315","122316","00:05:27","15","15","4.0.9.0","1","1","demographics","age","0","0","0","0","0","0","21","1","4392","0"
"316","316","122316","00:05:27","15","15","4.0.9.0","1","2","demographics","gender","0","0","0","0","0","0","female","1","6852","0"
"317","317","122316","00:04:00","15","15","4.0.9.0","1","1","demographics","age","0","0","0","0","0","0","21","1","6817","0"
"318","318","122316","00:04:00","15","15","4.0.9.0","1","2","demographics","gender","0","0","0","0","0","0","female","1","14822","0"
"319","319","122316","00:02:55","18","18","4.0.9.0","1","1","demographics","age","0","0","0","0","0","0","30","1","6460","0"
"320","320","122316","00:02:55","18","18","4.0.9.0","1","2","demographics","gender","0","0","0","0","0","0","male","1","4213","0"
"321","321","122216","23:47:31","14","14","4.0.9.0","1","1","demographics","age","0","0","0","0","0","0","29","1","3604","0"
"322","322","122216","23:47:31","14","14","4.0.9.0","1","2","demographics","gender","0","0","0","0","0","0","female","1","4263","0"
"323","323","122316","08:39:53","12","12","4.0.9.0","1","1","demographics","age","0","0","0","0","0","0","24","1","2690","0"
"324","324","122316","08:39:53","12","12","4.0.9.0","1","2","demographics","gender","0","0","0","0","0","0","male","1","4355","0"
"325","325","122216","17:35:43","10","10","4.0.9.0","1","1","demographics","age","0","0","0","0","0","0","18","1","5749","0"
"326","326","122216","17:35:43","10","10","4.0.9.0","1","2","demographics","gender","0","0","0","0","0","0","Male","1","4426","0"
"327","327","122216","17:25:09","8","8","4.0.9.0","1","1","demographics","age","0","0","0","0","0","0","51","1","9456","0"
"328","328","122216","17:25:09","8","8","4.0.9.0","1","2","demographics","gender","0","0","0","0","0","0","Male","1","4539","0"
"329","329","122216","15:07:04","6","6","4.0.9.0","1","1","demographics","age","0","0","0","0","0","0","39","1","7493","0"
"330","330","122216","15:07:04","6","6","4.0.9.0","1","2","demographics","gender","0","0","0","0","0","0","Male","1","7024","0"
"331","331","122216","22:55:19","5","5","4.0.9.0","1","1","demographics","age","0","0","0","0","0","0","n","1","4040","0"
"332","332","122216","22:55:19","5","5","4.0.9.0","1","2","demographics","gender","0","0","0","0","0","0","n","1","2252","0"
"333","333","122216","22:03:59","1","1","4.0.9.0","1","1","demographics","age","0","0","0","0","0","0","","1","2109","0"
