"date","time","group","subject","blockcode","blocknum","trialcode","trialnum","response","correct","latency","stimulusnumber1","stimulusitem1","expressions.d","expressions.latdiff","expressions.percentcorrect"
"122216","23:13:25","292","292","practice_incompatibletest","1","attributeB","2","23","1","839","3","Awful","","0","0"
"122216","23:13:25","292","292","practice_incompatibletest","1","attributeA","3","18","1","618","3","Laughter","","0","0"
"122216","23:13:25","292","292","practice_incompatibletest","1","attributeA","4","18","1","671","5","Glorious","","0","0"
"122216","23:13:25","292","292","practice_incompatibletest","1","attributeB","5","23","1","527","7","Failure","","0","0"
"122216","23:13:25","292","292","practice_incompatibletest","1","attributeA","6","18","1","683","7","Peace","","0","0"
"122216","23:13:25","292","292","practice_incompatibletest","1","attributeB","7","23","1","540","1","Evil","","0","0"
"122216","23:13:25","292","292","practice_incompatibletest","1","attributeB","8","23","1","634","6","Horrible","","0","0"
"122216","23:13:25","292","292","practice_incompatibletest","1","attributeB","9","23","1","611","4","Nasty","","0","0"
"122216","23:13:25","292","292","practice_incompatibletest","1","attributeA","10","18","1","575","4","Love","","0","0"
"122216","23:13:25","292","292","practice_incompatibletest","1","attributeA","11","18","1","641","8","Wonderful","","0","0"
"122216","23:13:25","292","292","incompatibletest","3","attributeB","1","23","1","791","8","Hurt","","791","100"
"122216","23:13:25","292","292","incompatibletest","3","targetAright","2","23","1","424","2","bf23_nc.jpg","1.2104749267369265819","607.5","100"
"122216","23:13:25","292","292","incompatibletest","3","attributeB","3","23","1","785","5","Terrible","1.4518816196736006319","666.6666666666666287711","100"
"122216","23:13:25","292","292","incompatibletest","3","targetAright","4","23","1","705","3","bf56_nc.jpg","1.5840454076948304873","676.25","100"
"122216","23:13:25","292","292","incompatibletest","3","attributeB","5","23","1","568","2","Agony","1.6436401106576015163","654.6000000000000227374","100"
"122216","23:13:25","292","292","incompatibletest","3","attributeB","6","23","1","468","4","Nasty","1.6534682512931162535","623.5","100"
"122216","23:13:25","292","292","incompatibletest","3","attributeB","7","23","1","558","2","Agony","1.6908328266028260778","614.1428571428571103752","100"
"122216","23:13:25","292","292","incompatibletest","3","attributeA","8","18","0","771","6","Pleasure","1.714605039540788578","633.75","87.5"
"122216","23:13:25","292","292","incompatibletest","3","targetAright","9","23","1","495","6","bm56_nc.jpg","1.7229048883323838659","618.3333333333333712289","88.8888888888888857309"
"122216","23:13:25","292","292","incompatibletest","3","attributeA","10","18","1","595","2","Happy","1.7467496103177948541","616","90"
"122216","23:13:25","292","292","incompatibletest","3","attributeA","11","18","0","690","1","Joy","1.7669675960022455108","622.7272727272727479431","81.8181818181818272251"
"122216","23:13:25","292","292","incompatibletest","3","attributeB","12","23","1","561","1","Evil","1.7805525896207317071","617.5833333333333712289","83.3333333333333428072"
"122216","23:13:25","292","292","incompatibletest","3","targetAright","13","23","1","433","5","bm23_nc.jpg","1.7704486349342161144","603.38461538461535838","84.6153846153846131983"
"122216","23:13:25","292","292","incompatibletest","3","targetAright","14","23","1","450","1","bf14_nc.jpg","1.7672972640077879714","592.4285714285714448124","85.7142857142857081953"
"122216","23:13:25","292","292","incompatibletest","3","attributeA","15","18","0","635","1","Joy","1.7816031245268031391","595.2666666666666515084","80"
"122216","23:13:25","292","292","incompatibletest","3","attributeB","16","23","1","655","7","Failure","1.7937787544032424147","599","81.25"
"122216","23:13:25","292","292","incompatibletest","3","targetAright","17","23","1","1014","4","bm14_nc.jpg","1.7410961997757647968","623.4117647058823195039","82.352941176470579876"
"122216","23:13:25","292","292","incompatibletest","3","attributeA","18","18","1","694","4","Love","1.7537659365940057032","627.3333333333333712289","83.3333333333333428072"
"122216","23:13:25","292","292","incompatibletest","3","attributeA","19","18","1","534","2","Happy","1.7594194125309172705","622.4210526315789593355","84.2105263157894654569"
"122216","23:13:25","292","292","incompatibletest","3","attributeB","20","23","1","595","6","Horrible","1.7690265764791992531","621.0499999999999545253","85"
"122216","23:13:25","292","292","incompatibletest","3","attributeB","21","23","1","445","3","Awful","1.7637064595460798522","612.6666666666666287711","85.7142857142857081953"
"122216","23:13:25","292","292","incompatibletest","3","attributeB","22","23","1","450","5","Terrible","1.7602600379534778519","605.2727272727272520569","86.3636363636363597607"
"122216","23:13:25","292","292","incompatibletest","3","targetAright","23","23","1","493","3","bf56_nc.jpg","1.7625490864801742763","600.3913043478261215569","86.9565217391304372541"
"122216","23:13:25","292","292","incompatibletest","3","attributeB","24","23","1","477","8","Hurt","1.7634559727361880377","595.25","87.5"
"122216","23:13:25","292","292","incompatibletest","3","attributeA","25","18","1","504","6","Pleasure","1.767059890095755037","591.6000000000000227374","88"
"122216","23:13:25","292","292","incompatibletest","3","targetAright","26","23","1","799","5","bm23_nc.jpg","1.7663059587897376179","599.5769230769230944134","88.4615384615384527933"
"122216","23:13:25","292","292","incompatibletest","3","targetAright","27","23","1","479","2","bf23_nc.jpg","1.7671757693604308592","595.1111111111110858474","88.8888888888888857309"
"122216","23:13:25","292","292","incompatibletest","3","attributeB","28","23","1","576","2","Agony","1.773918101010150794","594.4285714285714448124","89.2857142857142918047"
"122216","23:13:25","292","292","incompatibletest","3","attributeB","29","23","1","444","4","Nasty","1.771621361716499532","589.2413793103448824695","89.6551724137931103087"
"122216","23:13:25","292","292","incompatibletest","3","attributeA","30","18","0","584","8","Wonderful","1.7781322823763416885","589.0666666666667197205","86.6666666666666714036"
"122216","23:13:25","292","292","incompatibletest","3","attributeA","31","18","1","743","7","Peace","1.7808684940165833144","594.0322580645160996937","87.0967741935483843463"
"122216","23:13:25","292","292","incompatibletest","3","attributeA","32","18","1","637","5","Glorious","1.7870923201430655158","595.375","87.5"
"122216","23:13:25","292","292","incompatibletest","3","targetAright","33","23","1","460","1","bf14_nc.jpg","1.7860695433652675757","591.2727272727272520569","87.8787878787878753428"
"122216","23:13:25","292","292","incompatibletest","3","targetAright","34","23","1","415","6","bm56_nc.jpg","1.781256955486962168","586.0882352941176804961","88.2352941176470579876"
"122216","23:13:25","292","292","incompatibletest","3","attributeB","35","23","0","708","1","Evil","1.7850947699169477101","589.5714285714285551876","85.7142857142857081953"
"122216","23:13:25","292","292","incompatibletest","3","attributeA","36","18","1","696","3","Laughter","1.7892994955357111042","592.5277777777778283053","86.1111111111111142691"
"122216","23:13:25","292","292","incompatibletest","3","attributeA","37","18","1","493","8","Wonderful","1.7906519701713099479","589.8378378378378101843","86.486486486486484182"
"122216","23:13:25","292","292","incompatibletest","3","attributeA","38","18","1","457","6","Pleasure","1.7897408588414989161","586.3421052631579186709","86.8421052631579044601"
"122216","23:13:25","292","292","incompatibletest","3","attributeB","39","23","1","429","8","Hurt","1.7869213211358865312","582.3076923076922639666","87.1794871794871824022"
"122216","23:13:25","292","292","incompatibletest","3","targetAright","40","23","1","515","4","bm14_nc.jpg","1.7896774741320033986","580.625","87.5"
"122216","23:13:25","292","292","incompatibletest","3","attributeB","41","23","1","500","6","Horrible","1.7917199541792798723","578.6585365853658231572","87.804878048780494737"
"122216","23:13:25","292","292","incompatibletest","3","attributeA","42","18","1","569","7","Peace","1.7959061987369415725","578.4285714285714448124","88.0952380952380877943"
"122216","23:13:25","292","292","incompatibletest","3","attributeA","43","18","1","467","4","Love","1.7961491306122630007","575.8372093023256184097","88.3720930232558146145"
"122216","23:13:25","292","292","incompatibletest","3","attributeB","44","23","1","441","5","Terrible","1.7949017263177107218","572.7727272727272520569","88.6363636363636402393"
"122216","23:13:25","292","292","incompatibletest","3","targetAright","45","23","1","470","5","bm23_nc.jpg","1.7955483817267845481","570.48888888888893689","88.8888888888888857309"
"122216","23:13:25","292","292","incompatibletest","3","attributeB","46","23","1","450","3","Awful","1.7951602784123832368","567.8695652173912549188","89.1304347826086882378"
"122216","23:13:25","292","292","incompatibletest","3","attributeA","47","18","1","478","3","Laughter","1.7963532659267016367","565.9574468085106673243","89.361702127659569328"
"122216","23:13:25","292","292","incompatibletest","3","attributeA","48","18","1","453","2","Happy","1.7963286409991607862","563.6041666666666287711","89.5833333333333428072"
"122216","23:13:25","292","292","incompatibletest","3","attributeA","49","18","1","404","5","Glorious","1.7933484575889375723","560.3469387755102388837","89.7959183673469425457"
"122216","23:13:25","292","292","incompatibletest","3","targetAright","50","23","1","430","1","bf14_nc.jpg","1.792310350770956795","557.7400000000000090949","90"
"122216","23:13:25","292","292","incompatibletest","3","targetAright","51","23","1","458","3","bf56_nc.jpg","1.7929042634364118491","555.7843137254901648703","90.1960784313725554284"
"122216","23:13:25","292","292","incompatibletest","3","targetAright","52","23","1","496","2","bf23_nc.jpg","1.7950583934703636668","554.63461538461535838","90.3846153846153868017"
"122216","23:13:25","292","292","incompatibletest","3","attributeA","53","18","0","642","1","Joy","1.7980064178199157698","556.2830188679245111416","88.6792452830188722146"
"122216","23:13:25","292","292","incompatibletest","3","targetAright","54","23","1","706","6","bm56_nc.jpg","1.7989385801116508645","559.0555555555555429237","88.8888888888888857309"
"122216","23:13:25","292","292","incompatibletest","3","attributeA","55","18","1","635","2","Happy","1.8019181693604464645","560.4363636363635805537","89.0909090909090934929"
"122216","23:13:25","292","292","incompatibletest","3","attributeB","56","23","1","563","7","Failure","1.805034283145855678","560.4821428571428896248","89.2857142857142918047"
"122216","23:13:25","292","292","incompatibletest","3","attributeA","57","18","1","560","6","Pleasure","1.8080260896348421262","560.4736842105263576741","89.4736842105263150415"
"122216","23:13:25","292","292","incompatibletest","3","targetAright","58","23","1","696","4","bm14_nc.jpg","1.8092089656166747691","562.810344827586163774","89.6551724137931103087"
"122216","23:13:25","292","292","incompatibletest","3","attributeA","59","18","1","538","4","Love","1.8117277562422058335","562.3898305084745743443","89.8305084745762769671"
"122216","23:13:25","292","292","incompatibletest","3","attributeA","60","18","1","489","1","Joy","1.8129938387224613372","561.1666666666666287711","90"
"122216","23:13:25","292","292","incompatibletest","3","attributeA","61","18","1","448","5","Glorious","1.8127141022277026838","559.3114754098360208445","90.1639344262295026056"
"122216","23:13:25","292","292","incompatibletest","3","attributeA","62","18","1","338","8","Wonderful","1.8058937985653340519","555.7419354838709750766","90.3225806451612811543"
"122216","23:13:25","292","292","incompatibletest","3","attributeB","63","23","1","593","7","Failure","1.8087038308796707931","556.3333333333333712289","90.4761904761904816041"
"122216","23:13:25","292","292","incompatibletest","3","attributeA","64","18","1","565","3","Laughter","1.8113864421104031166","556.46875","90.625"
"122216","23:13:25","292","292","incompatibletest","3","attributeA","65","18","1","518","7","Peace","1.813397500338995938","555.8769230769230489386","90.7692307692307736033"
"122216","23:13:25","292","292","incompatibletest","3","attributeA","66","18","1","427","6","Pleasure","1.8123937342347864465","553.9242424242423794567","90.9090909090909065071"
"122216","23:13:25","292","292","incompatibletest","3","targetAright","67","23","1","489","6","bm56_nc.jpg","1.8137175366311770741","552.9552238805970318936","91.0447761194029823173"
"122216","23:13:25","292","292","incompatibletest","3","targetAright","68","23","1","460","3","bf56_nc.jpg","1.8141435797530431895","551.5882352941176804961","91.176470588235289938"
"122216","23:13:25","292","292","incompatibletest","3","attributeA","69","18","1","526","5","Glorious","1.8162194865069534178","551.2173913043478705731","91.3043478260869534324"
"122216","23:13:25","292","292","incompatibletest","3","attributeA","70","18","0","707","7","Peace","1.8163088802348288375","553.4428571428571785873","90"
"122216","23:13:25","292","292","compatibletest","5","attributeB","1","23","1","1009","8","Hurt","-1.752534780414258142","-455.5571428571428214127","90.1408450704225430172"
"122216","23:13:25","292","292","compatibletest","5","attributeB","2","23","1","447","1","Evil","-1.1110382561798437528","-174.5571428571428214127","90.2777777777777856727"
"122216","23:13:25","292","292","compatibletest","5","attributeB","3","23","1","480","2","Agony","-0.6591666732657923689","-91.8904761904761926417","90.4109589041095773609"
"122216","23:13:25","292","292","compatibletest","5","attributeA","4","18","1","499","3","Laughter","-0.4116466716588273456","-55.3071428571428214127","90.5405405405405332431"
"122216","23:13:25","292","292","compatibletest","5","targetAleft","5","18","1","373","1","bf14_nc.jpg","-0.0613812967820487054","-8.1571428571428441501","90.6666666666666571928"
"122216","23:13:25","292","292","compatibletest","5","targetAleft","6","18","1","466","5","bm23_nc.jpg","0.0587400289817229804","7.7761904761905498162","90.7894736842105345431"
"122216","23:13:25","292","292","compatibletest","5","targetAleft","7","18","1","410","2","bf23_nc.jpg","0.2042758428833655049","27.1571428571428441501","90.9090909090909065071"
"122216","23:13:25","292","292","compatibletest","5","attributeB","8","23","1","575","3","Awful","0.1597176169160326176","21.0678571428571785873","91.0256410256410219972"
"122216","23:13:25","292","292","compatibletest","5","attributeB","9","23","0","544","4","Nasty","0.1509414423433391439","19.7761904761905498162","89.8734177215189902199"
"122216","23:13:25","292","292","compatibletest","5","targetAleft","10","18","1","710","4","bm14_nc.jpg","0.0163361439717430376","2.142857142857224062","90"
"122216","23:13:25","292","292","compatibletest","5","attributeB","11","23","1","629","5","Terrible","-0.037668927444024114","-4.9207792207791953842","90.123456790123455562"
"122216","23:13:25","292","292","compatibletest","5","attributeB","12","23","1","444","6","Horrible","0.0353519124636282253","4.6095238095238073583","90.2439024390243957896"
"122216","23:13:25","292","292","compatibletest","5","targetAleft","13","18","1","479","1","bf14_nc.jpg","0.0768500638818959136","9.981318681318725794","90.3614457831325381676"
"122216","23:13:25","292","292","compatibletest","5","targetAleft","14","18","1","400","4","bm14_nc.jpg","0.1552622632721979146","20.2285714285715130245","90.4761904761904816041"
"122216","23:13:25","292","292","compatibletest","5","targetAleft","15","18","1","356","2","bf23_nc.jpg","0.243766233852769687","32.0428571428572013247","90.5882352941176520744"
"122216","23:13:25","292","292","compatibletest","5","attributeA","16","18","1","582","8","Wonderful","0.2163187343425398701","28.2553571428571785873","90.6976744186046488494"
"122216","23:13:25","292","292","compatibletest","5","targetAleft","17","18","1","422","3","bf56_nc.jpg","0.2626614141100777622","34.3252100840336424881","90.8045977011494187536"
"122216","23:13:25","292","292","compatibletest","5","attributeA","18","18","1","917","1","Joy","0.090230710259137939","12.2206349206350068926","90.9090909090909065071"
"122216","23:13:25","292","292","compatibletest","5","targetAleft","19","18","1","434","6","bm56_nc.jpg","0.132046510847696974","17.8639097744361379227","91.0112359550561791366"
"122216","23:13:25","292","292","compatibletest","5","attributeA","20","18","1","409","4","Love","0.1786650610126568339","24.1928571428571785873","91.1111111111111142691"
"122216","23:13:25","292","292","compatibletest","5","attributeB","21","23","0","573","6","Horrible","0.1642056488805739844","22.1095238095238073583","90.1098901098901166051"
"122216","23:13:25","292","292","compatibletest","5","attributeB","22","23","1","528","5","Terrible","0.1662322660596725898","22.2610389610390484449","90.2173913043478279405"
"122216","23:13:25","292","292","compatibletest","5","attributeB","23","23","1","470","7","Failure","0.1867373656476712107","24.921118012422425636","90.3225806451612811543"
"122216","23:13:25","292","292","compatibletest","5","attributeB","24","23","1","509","3","Awful","0.1937894791056068156","25.7345238095238073583","90.425531914893625185"
"122216","23:13:25","292","292","compatibletest","5","attributeA","25","18","1","582","2","Happy","0.1783629060614433937","23.5628571428571831348","90.5263157894736849585"
"122216","23:13:25","292","292","compatibletest","5","attributeA","26","18","1","472","3","Laughter","0.1958920545218046927","25.7890109890109897606","90.625"
"122216","23:13:25","292","292","compatibletest","5","attributeB","27","23","1","638","2","Agony","0.1653531695220358255","21.7021164021164167934","90.7216494845360870158"
"122216","23:13:25","292","292","compatibletest","5","attributeA","28","18","1","506","7","Peace","0.1731611203917336472","22.6214285714286233997","90.8163265306122440279"
"122216","23:13:25","292","292","compatibletest","5","attributeA","29","18","1","480","4","Love","0.1872716320342707741","24.373891625615783596","90.9090909090909065071"
"122216","23:13:25","292","292","compatibletest","5","attributeB","30","23","1","492","8","Hurt","0.197587014904642283","25.6095238095238073583","91"
"122216","23:13:25","292","292","compatibletest","5","targetAleft","31","18","1","668","5","bm23_nc.jpg","0.1628451350974161327","21.0880184331797408959","91.089108910891098958"
"122216","23:13:25","292","292","compatibletest","5","attributeA","32","18","1","501","6","Pleasure","0.1711522828155934428","22.0678571428571785873","91.176470588235289938"
"122216","23:13:25","292","292","compatibletest","5","targetAleft","33","18","1","543","1","bf14_nc.jpg","0.1692591376440749362","21.7155844155844306442","91.2621359223301027441"
"122216","23:13:25","292","292","compatibletest","5","attributeB","34","23","1","515","4","Nasty","0.1738909699909602924","22.2075630252101063888","91.346153846153839595"
"122216","23:13:25","292","292","compatibletest","5","attributeA","35","18","1","497","8","Wonderful","0.1822976711939519878","23.1857142857143116998","91.4285714285714306016"
"122216","23:13:25","292","292","compatibletest","5","attributeA","36","18","0","684","2","Happy","0.1486247299632872665","18.915079365079350282","90.5660377358490649158"
"122216","23:13:25","292","292","compatibletest","5","attributeB","37","23","1","621","1","Evil","0.1306823939268285661","16.5779922779922799236","90.6542056074766406937"
"122216","23:13:25","292","292","compatibletest","5","targetAleft","38","18","1","419","4","bm14_nc.jpg","0.1551085182827309505","19.6796992481203005809","90.740740740740747583"
"122216","23:13:25","292","292","compatibletest","5","targetAleft","39","18","1","370","3","bf56_nc.jpg","0.1873912389045325477","23.8787545787546378051","90.8256880733944882422"
"122216","23:13:25","292","292","compatibletest","5","attributeA","40","18","1","463","5","Glorious","0.2009913769001384076","25.5428571428572013247","90.9090909090909065071"
"122216","23:13:25","292","292","compatibletest","5","attributeA","41","18","1","510","1","Joy","0.2052982460064405323","25.9794425087108038497","90.9909909909909941916"
"122216","23:13:25","292","292","compatibletest","5","attributeA","42","18","1","571","2","Happy","0.1979703133901767609","24.9428571428571785873","91.0714285714285693984"
"122216","23:13:25","292","292","compatibletest","5","targetAleft","43","18","1","527","2","bf23_nc.jpg","0.1991264948427717563","24.9777408637874032138","91.1504424778760977688"
"122216","23:13:25","292","292","compatibletest","5","attributeB","44","23","1","579","3","Awful","0.1907594639923337609","23.8292207792208046158","91.2280701754385887625"
"122216","23:13:25","292","292","compatibletest","5","attributeB","45","23","1","486","7","Failure","0.1992050514772372438","24.7984126984127897231","91.3043478260869534324"
"122216","23:13:25","292","292","compatibletest","5","targetAleft","46","18","1","433","6","bm56_nc.jpg","0.2161062896776710096","26.8776397515528060467","91.379310344827587187"
"122216","23:13:25","292","292","compatibletest","5","attributeB","47","23","1","522","4","Nasty","0.2178065456792748766","26.9747720364741780941","91.4529914529914549348"
"122216","23:13:25","292","292","compatibletest","5","attributeB","48","23","1","586","2","Agony","0.2085849438491751973","25.7345238095238073583","91.5254237288135641393"
"122216","23:13:25","292","292","compatibletest","5","targetAleft","49","18","1","551","5","bm23_nc.jpg","0.2056066444945286731","25.2591836734694652478","91.596638655462186307"
"122216","23:13:25","292","292","compatibletest","5","targetAleft","50","18","1","408","3","bf56_nc.jpg","0.2249820285450524482","27.6628571428572058721","91.6666666666666571928"
"122216","23:13:25","292","292","compatibletest","5","attributeA","51","18","1","394","1","Joy","0.2455491213532040584","30.2467787114845805263","91.7355371900826526144"
"122216","23:13:25","292","292","compatibletest","5","attributeA","52","18","1","424","3","Laughter","0.261153846044917648","32.1543956043956313806","91.8032786885245855046"
"122216","23:13:25","292","292","compatibletest","5","attributeB","53","23","1","600","5","Terrible","0.249882941404604958","30.6692722371967647632","91.8699186991869964913"
"122216","23:13:25","292","292","compatibletest","5","targetAleft","54","18","1","602","4","bm14_nc.jpg","0.2386638192137239267","29.2021164021164167934","91.9354838709677437691"
"122216","23:13:25","292","292","compatibletest","5","attributeB","55","23","1","727","1","Evil","0.2074586977235642615","25.5155844155844988563","92"
"122216","23:13:25","292","292","compatibletest","5","targetAleft","56","18","0","805","5","bm23_nc.jpg","0.1649241251635513716","20.5678571428571785873","91.2698412698412653299"
"122216","23:13:25","292","292","compatibletest","5","attributeB","57","23","1","1047","6","Horrible","0.0875001730494451846","11.5481203007518615777","91.338582677165362611"
"122216","23:13:25","292","292","compatibletest","5","attributeB","58","23","1","625","8","Hurt","0.0768450515890531372","10.1152709359606660655","91.40625"
"122216","23:13:25","292","292","compatibletest","5","attributeA","59","18","0","1311","5","Glorious","-0.0196628137995213219","-2.8961259079902674785","90.6976744186046488494"
"122216","23:13:25","292","292","compatibletest","5","attributeB","60","23","1","1013","4","Nasty","-0.0690700869333850248","-10.5071428571428668874","90.7692307692307736033"
"122216","23:13:25","292","292","compatibletest","5","targetAleft","61","18","1","606","2","bf23_nc.jpg","-0.0738583962492227047","-11.1964871194378474684","90.8396946564885467978"
"122216","23:13:25","292","292","compatibletest","5","attributeB","62","23","1","697","3","Awful","-0.0879993329194615481","-13.331336405529896183","90.9090909090909065071"
"122216","23:13:25","292","292","compatibletest","5","attributeB","63","23","1","622","8","Hurt","-0.0940827983484173042","-14.2079365079364379199","90.97744360902255778"
"122216","23:13:25","292","292","compatibletest","5","attributeB","64","23","1","526","5","Terrible","-0.0900955009005582064","-13.5571428571428214127","91.0447761194029823173"
"122216","23:13:25","292","292","compatibletest","5","attributeB","65","23","1","484","7","Failure","-0.081838171891674541","-12.2802197802197952115","91.1111111111111142691"
"122216","23:13:25","292","292","compatibletest","5","attributeA","66","18","1","540","6","Pleasure","-0.0795310934095994487","-11.8904761904761926417","91.176470588235289938"
"122216","23:13:25","292","292","compatibletest","5","attributeA","67","18","1","410","8","Wonderful","-0.0640267657375823696","-9.5720682302771820105","91.2408759124087538339"
"122216","23:13:25","292","292","compatibletest","5","attributeB","68","23","1","572","6","Horrible","-0.0651467606967413432","-9.704201680672213115","91.3043478260869534324"
"122216","23:13:25","292","292","compatibletest","5","attributeA","69","18","1","495","4","Love","-0.0586913754029966608","-8.7165631469979416579","91.3669064748201407156"
"122216","23:13:25","292","292","compatibletest","5","attributeB","70","23","1","575","2","Agony","-0.0601403363303172969","-8.8999999999999772626","91.4285714285714306016"
"122216","23:02:45","293","293","practice_compatibletest","1","attributeA","2","18","1","1498","1","Joy","","0","0"
"122216","23:02:45","293","293","practice_compatibletest","1","attributeB","3","23","1","962","7","Failure","","0","0"
"122216","23:02:45","293","293","practice_compatibletest","1","attributeB","4","23","1","488","6","Horrible","","0","0"
"122216","23:02:45","293","293","practice_compatibletest","1","attributeA","5","18","1","641","6","Pleasure","","0","0"
"122216","23:02:45","293","293","practice_compatibletest","1","attributeA","6","18","1","724","4","Love","","0","0"
"122216","23:02:45","293","293","practice_compatibletest","1","attributeB","7","23","1","724","5","Terrible","","0","0"
"122216","23:02:45","293","293","practice_compatibletest","1","attributeB","8","23","1","579","3","Awful","","0","0"
"122216","23:02:45","293","293","practice_compatibletest","1","attributeA","9","18","1","769","8","Wonderful","","0","0"
"122216","23:02:45","293","293","practice_compatibletest","1","attributeB","10","23","1","646","1","Evil","","0","0"
"122216","23:02:45","293","293","practice_compatibletest","1","attributeA","11","18","1","649","3","Laughter","","0","0"
"122216","23:02:45","293","293","compatibletest","3","attributeA","1","18","1","1126","7","Peace","","-1126","100"
"122216","23:02:45","293","293","compatibletest","3","attributeB","2","23","1","781","8","Hurt","-1.3298406010448127201","-953.5","100"
"122216","23:02:45","293","293","compatibletest","3","targetAleft","3","18","1","1619","4","bm14_nc.jpg","-1.4094159510527941581","-1175.3333333333332575421","100"
"122216","23:02:45","293","293","compatibletest","3","attributeB","4","23","1","717","4","Nasty","-1.4357571340552959249","-1060.75","100"
"122216","23:02:45","293","293","compatibletest","3","attributeA","5","18","1","637","2","Happy","-1.4364222017450849478","-976","100"
"122216","23:02:45","293","293","compatibletest","3","targetAleft","6","18","1","912","6","bm56_nc.jpg","-1.5049597731013615309","-965.3333333333333712289","100"
"122216","23:02:45","293","293","compatibletest","3","targetAleft","7","18","1","599","2","bf23_nc.jpg","-1.4965323799880148048","-913","100"
"122216","23:02:45","293","293","compatibletest","3","attributeB","8","23","1","732","2","Agony","-1.5242230392977913489","-890.375","100"
"122216","23:02:45","293","293","compatibletest","3","attributeB","9","23","1","740","1","Evil","-1.5503262634563617084","-873.6666666666666287711","100"
"122216","23:02:45","293","293","compatibletest","3","attributeA","10","18","1","723","5","Glorious","-1.5714866292221989497","-858.6000000000000227374","100"
"122216","23:02:45","293","293","compatibletest","3","attributeB","11","23","1","562","7","Failure","-1.5645255899146295331","-831.6363636363636260285","100"
"122216","23:02:45","293","293","compatibletest","3","attributeB","12","23","1","665","6","Horrible","-1.5776998324767139703","-817.75","100"
"122216","23:02:45","293","293","compatibletest","3","attributeB","13","23","1","467","8","Hurt","-1.5571067658771662323","-790.7692307692307167599","100"
"122216","23:02:45","293","293","compatibletest","3","targetAleft","14","18","1","797","1","bf14_nc.jpg","-1.5815260165776843237","-791.2142857142856655628","100"
"122216","23:02:45","293","293","compatibletest","3","targetAleft","15","18","1","442","5","bm23_nc.jpg","-1.5610656201454711223","-767.9333333333332802795","100"
"122216","23:02:45","293","293","compatibletest","3","attributeA","16","18","1","261","7","Peace","-1.5058709725968155713","-736.25","100"
"122216","23:02:45","293","293","compatibletest","3","attributeB","17","23","1","513","4","Nasty","-1.5064519709256414259","-723.1176470588235360992","100"
"122216","23:02:45","293","293","compatibletest","3","attributeB","18","23","1","601","3","Awful","-1.5176260153955611898","-716.3333333333333712289","100"
"122216","23:02:45","293","293","compatibletest","3","attributeB","19","23","1","429","2","Agony","-1.5079610062293982153","-701.2105263157894796677","100"
"122216","23:02:45","293","293","compatibletest","3","attributeA","20","18","1","546","4","Love","-1.5144015251739577632","-693.4500000000000454747","100"
"122216","23:02:45","293","293","compatibletest","3","attributeB","21","23","0","697","5","Terrible","-1.5309588629765569223","-693.6190476190475919793","95.2380952380952265912"
"122216","23:02:45","293","293","compatibletest","3","attributeA","22","18","1","497","1","Joy","-1.5319566328591127657","-684.6818181818181301423","95.4545454545454532536"
"122216","23:02:45","293","293","compatibletest","3","attributeB","23","23","1","498","5","Terrible","-1.5335971496207403408","-676.5652173913043725406","95.6521739130434838216"
"122216","23:02:45","293","293","compatibletest","3","targetAleft","24","18","1","691","3","bf56_nc.jpg","-1.5480015703305505248","-677.1666666666666287711","95.8333333333333428072"
"122216","23:02:45","293","293","compatibletest","3","attributeB","25","23","1","612","2","Agony","-1.5581853958511917568","-674.5599999999999454303","96"
"122216","23:02:45","293","293","compatibletest","3","targetAleft","26","18","0","1656","4","bm14_nc.jpg","-1.4689832966054818808","-712.3076923076922639666","92.3076923076923065992"
"122216","23:02:45","293","293","compatibletest","3","targetAleft","27","18","1","1168","6","bm56_nc.jpg","-1.4732700330540104972","-729.1851851851852188702","92.5925925925925952242"
"122216","23:02:45","293","293","compatibletest","3","targetAleft","28","18","1","389","5","bm23_nc.jpg","-1.4624342524776030583","-717.0357142857143344372","92.8571428571428612031"
"122216","23:02:45","293","293","compatibletest","3","attributeA","29","18","1","514","5","Glorious","-1.4639533973506355657","-710.0344827586206974956","93.1034482758620640652"
"122216","23:02:45","293","293","compatibletest","3","attributeA","30","18","1","435","3","Laughter","-1.4593566185991060369","-700.8666666666666742458","93.3333333333333285964"
"122216","23:02:45","293","293","compatibletest","3","targetAleft","31","18","1","454","2","bf23_nc.jpg","-1.4570465333432260913","-692.903225806451587232","93.5483870967741921731"
"122216","23:02:45","293","293","compatibletest","3","attributeB","32","23","1","569","8","Hurt","-1.4629591731482374239","-689.03125","93.75"
"122216","23:02:45","293","293","compatibletest","3","targetAleft","33","18","1","831","1","bf14_nc.jpg","-1.4756867687163437441","-693.3333333333333712289","93.9393939393939376714"
"122216","23:02:45","293","293","compatibletest","3","attributeB","34","23","0","770","4","Nasty","-1.4874699012761392058","-695.5882352941176804961","91.176470588235289938"
"122216","23:02:45","293","293","compatibletest","3","attributeB","35","23","1","735","3","Awful","-1.4982123108237059839","-696.7142857142856655628","91.4285714285714306016"
"122216","23:02:45","293","293","compatibletest","3","attributeB","36","23","1","590","1","Evil","-1.503899879454344557","-693.75","91.6666666666666571928"
"122216","23:02:45","293","293","compatibletest","3","attributeB","37","23","1","483","7","Failure","-1.5035792691965468304","-688.0540540540540632719","91.8918918918919018779"
"122216","23:02:45","293","293","compatibletest","3","attributeA","38","18","1","629","2","Happy","-1.510744439928743077","-686.5","92.1052631578947398339"
"122216","23:02:45","293","293","compatibletest","3","attributeB","39","23","1","641","6","Horrible","-1.5181013804553293856","-685.3333333333333712289","92.3076923076923065992"
"122216","23:02:45","293","293","compatibletest","3","targetAleft","40","18","1","436","3","bf56_nc.jpg","-1.5148913185020485006","-679.1000000000000227374","92.5"
"122216","23:02:45","293","293","compatibletest","3","attributeB","41","23","0","735","6","Horrible","-1.5239750613282829761","-680.4634146341463747376","90.2439024390243957896"
"122216","23:02:45","293","293","compatibletest","3","attributeB","42","23","1","613","7","Failure","-1.5299621578595044014","-678.8571428571428896248","90.4761904761904816041"
"122216","23:02:45","293","293","compatibletest","3","targetAleft","43","18","1","602","4","bm14_nc.jpg","-1.5354286217989048247","-677.069767441860449253","90.6976744186046488494"
"122216","23:02:45","293","293","compatibletest","3","targetAleft","44","18","1","302","6","bm56_nc.jpg","-1.5223498294734021385","-668.5454545454545041139","90.9090909090909065071"
"122216","23:02:45","293","293","compatibletest","3","attributeA","45","18","1","639","6","Pleasure","-1.5289970163864410324","-667.8888888888889141526","91.1111111111111142691"
"122216","23:02:45","293","293","compatibletest","3","attributeB","46","23","1","442","5","Terrible","-1.5270788237532830767","-662.9782608695652470487","91.3043478260869534324"
"122216","23:02:45","293","293","compatibletest","3","targetAleft","47","18","1","518","5","bm23_nc.jpg","-1.5293489455365578689","-659.8936170212765546239","91.4893617021276526202"
"122216","23:02:45","293","293","compatibletest","3","attributeA","48","18","1","381","8","Wonderful","-1.5239830961072284854","-654.0833333333333712289","91.6666666666666571928"
"122216","23:02:45","293","293","compatibletest","3","attributeA","49","18","1","332","5","Glorious","-1.515577405956407997","-647.5102040816326507411","91.8367346938775597209"
"122216","23:02:45","293","293","compatibletest","3","attributeA","50","18","1","348","8","Wonderful","-1.5088554139528407294","-641.5199999999999818101","92"
"122216","23:02:45","293","293","compatibletest","3","attributeA","51","18","1","323","3","Laughter","-1.5008300793376365689","-635.2745098039215463359","92.1568627450980386584"
"122216","23:02:45","293","293","compatibletest","3","targetAleft","52","18","1","460","2","bf23_nc.jpg","-1.5014083145642729278","-631.9038461538461888267","92.3076923076923065992"
"122216","23:02:45","293","293","compatibletest","3","targetAleft","53","18","1","358","3","bf56_nc.jpg","-1.4964487601151550411","-626.7358490566037971803","92.4528301886792434061"
"122216","23:02:45","293","293","compatibletest","3","targetAleft","54","18","1","301","1","bf14_nc.jpg","-1.4880324369582715871","-620.7037037037036952825","92.5925925925925952242"
"122216","23:02:45","293","293","compatibletest","3","attributeB","55","23","1","462","4","Nasty","-1.4892275177672174014","-617.8181818181818698577","92.7272727272727195214"
"122216","23:02:45","293","293","compatibletest","3","targetAleft","56","18","1","449","4","bm14_nc.jpg","-1.4899081726671614678","-614.8035714285714448124","92.8571428571428612031"
"122216","23:02:45","293","293","compatibletest","3","attributeA","57","18","1","540","2","Happy","-1.4940514207337700636","-613.491228070175452558","92.9824561403508766944"
"122216","23:02:45","293","293","compatibletest","3","attributeB","58","23","0","604","8","Hurt","-1.4996993013972426123","-613.3275862068965125218","91.379310344827587187"
"122216","23:02:45","293","293","compatibletest","3","attributeB","59","23","0","511","3","Awful","-1.5027768717484673022","-611.5932203389830874585","89.8305084745762769671"
"122216","23:02:45","293","293","compatibletest","3","attributeA","60","18","1","543","7","Peace","-1.5068022943431602645","-610.4500000000000454747","90"
"122216","23:02:45","293","293","compatibletest","3","attributeB","61","23","0","718","2","Agony","-1.5132082404418971677","-612.2131147540983420186","88.5245901639344197065"
"122216","23:02:45","293","293","compatibletest","3","attributeB","62","23","1","549","1","Evil","-1.5171893101701561246","-611.193548387096825536","88.7096774193548327503"
"122216","23:02:45","293","293","compatibletest","3","targetAleft","63","18","1","412","3","bf56_nc.jpg","-1.5161794580683614075","-608.0317460317460245278","88.8888888888888857309"
"122216","23:02:45","293","293","compatibletest","3","attributeA","64","18","1","289","6","Pleasure","-1.5085812069334663121","-603.046875","89.0625"
"122216","23:02:45","293","293","compatibletest","3","attributeB","65","23","0","747","8","Hurt","-1.5144909735678704354","-605.2615384615384073186","87.6923076923076934008"
"122216","23:02:45","293","293","compatibletest","3","attributeA","66","18","1","304","4","Love","-1.5081315875934764303","-600.6969696969697452005","87.8787878787878753428"
"122216","23:02:45","293","293","compatibletest","3","attributeB","67","23","0","633","7","Failure","-1.5135183072244924318","-601.1791044776119861126","86.5671641791044663705"
"122216","23:02:45","293","293","compatibletest","3","attributeA","68","18","1","492","1","Joy","-1.515831123083802856","-599.5735294117647526946","86.7647058823529420124"
"122216","23:02:45","293","293","compatibletest","3","attributeB","69","23","0","757","3","Awful","-1.5212327409443240356","-601.8550724637681241802","85.507246376811593791"
"122216","23:02:45","293","293","compatibletest","3","attributeA","70","18","1","595","3","Laughter","-1.5257951244285097303","-601.7571428571428668874","85.7142857142857081953"
"122216","23:02:45","293","293","incompatibletest","5","attributeB","1","23","0","3710","6","Horrible","1.9608938625294491942","3108.2428571428572467994","84.507042253521120756"
"122216","23:02:45","293","293","incompatibletest","5","attributeA","2","18","1","704","4","Love","1.8189595681604853183","1605.2428571428572467994","84.7222222222222143273"
"122216","23:02:45","293","293","incompatibletest","5","attributeA","3","18","1","536","2","Happy","1.6019648892299758192","1048.2428571428572467994","84.9315068493150704398"
"122216","23:02:45","293","293","incompatibletest","5","targetAright","4","23","0","999","2","bf23_nc.jpg","1.4953325295973511899","885.4928571428571331126","83.7837837837837895449"
"122216","23:02:45","293","293","incompatibletest","5","attributeB","5","23","0","1050","1","Evil","1.4256672446083551442","798.0428571428570876378","82.6666666666666714036"
"122216","23:02:45","293","293","incompatibletest","5","targetAright","6","23","1","579","1","bf14_nc.jpg","1.2768306551565440365","661.2428571428571331126","82.8947368421052601661"
"122216","23:02:45","293","293","incompatibletest","5","attributeA","7","18","1","625","1","Joy","1.1582427773671433169","570.1000000000000227374","83.1168831168831161449"
"122216","23:02:45","293","293","incompatibletest","5","attributeA","8","18","1","861","6","Pleasure","1.1066573710804787911","531.2428571428571331126","83.3333333333333428072"
"122216","23:02:45","293","293","incompatibletest","5","attributeB","9","23","0","999","2","Agony","1.089425954561037635","516.3539682539682189599","82.2784810126582328849"
"122216","23:02:45","293","293","incompatibletest","5","attributeB","10","23","1","514","4","Nasty","0.9903988219348788258","455.9428571428571785873","82.5"
"122216","23:02:45","293","293","incompatibletest","5","attributeB","11","23","1","570","5","Terrible","0.9137765529684779287","411.6064935064935070841","82.7160493827160507863"
"122216","23:02:45","293","293","incompatibletest","5","targetAright","12","23","1","696","5","bm23_nc.jpg","0.868380252771061345","385.1595238095237618836","82.9268292682926784209"
"122216","23:02:45","293","293","incompatibletest","5","attributeA","13","18","0","1025","5","Glorious","0.8780191880149316175","388.0890109890109442858","81.9277108433734895243"
"122216","23:02:45","293","293","incompatibletest","5","targetAright","14","23","1","1123","6","bm56_nc.jpg","0.8991025660313802792","397.6000000000000227374","82.1428571428571387969"
"122216","23:02:45","293","293","incompatibletest","5","targetAright","15","23","1","706","2","bf23_nc.jpg","0.8654275827105524233","378.0428571428570876378","82.352941176470579876"
"122216","23:02:45","293","293","incompatibletest","5","targetAright","16","23","1","794","6","bm56_nc.jpg","0.8469396017807776511","366.4303571428571331126","82.5581395348837219217"
"122216","23:02:45","293","293","incompatibletest","5","attributeB","17","23","1","1367","6","Horrible","0.8906572678606816673","389.8899159663865248149","82.7586206896551743739"
"122216","23:02:45","293","293","incompatibletest","5","attributeA","18","18","1","972","8","Wonderful","0.892780060451002222","388.7984126984126760362","82.9545454545454532536"
"122216","23:02:45","293","293","incompatibletest","5","targetAright","19","23","1","1993","5","bm23_nc.jpg","0.9639672485569394933","441.5586466165412957707","83.1460674157303429865"
"122216","23:02:45","293","293","incompatibletest","5","attributeA","20","18","1","1076","7","Peace","0.9708557171277309994","443.1928571428571785873","83.3333333333333428072"
"122216","23:02:45","293","293","incompatibletest","5","attributeA","21","18","1","749","2","Happy","0.9490222619820243288","429.1000000000000227374","83.5164835164835182013"
"122216","23:02:45","293","293","incompatibletest","5","attributeB","22","23","1","644","8","Hurt","0.9189547671802421602","411.5155844155843851695","83.6956521739130465676"
"122216","23:02:45","293","293","incompatibletest","5","attributeA","23","18","1","1247","5","Glorious","0.9393360209520362769","421.6776397515527605719","83.8709677419354875383"
"122216","23:02:45","293","293","incompatibletest","5","attributeA","24","18","1","520","7","Peace","0.9003174457772020745","400.7011904761905043415","84.0425531914893610974"
"122216","23:02:45","293","293","incompatibletest","5","attributeA","25","18","1","504","6","Pleasure","0.862247575428295665","380.7628571428571149227","84.2105263157894654569"
"122216","23:02:45","293","293","incompatibletest","5","attributeB","26","23","0","737","7","Failure","0.8470877784488476392","371.3197802197802275259","83.3333333333333428072"
"122216","23:02:45","293","293","incompatibletest","5","targetAright","27","23","0","1015","3","bf56_nc.jpg","0.853595892612973528","372.872486772486809059","82.47422680412370255"
"122216","23:02:45","293","293","incompatibletest","5","attributeA","28","18","1","1146","4","Love","0.8679586257302206453","378.9928571428571331126","82.6530612244898037488"
"122216","23:02:45","293","293","incompatibletest","5","attributeA","29","18","1","744","8","Wonderful","0.8550509018020665541","370.8290640394088768517","82.8282828282828234023"
"122216","23:02:45","293","293","incompatibletest","5","attributeA","30","18","0","1023","3","Laughter","0.8617073352628296101","372.509523809523784621","82"
"122216","23:02:45","293","293","incompatibletest","5","attributeA","31","18","1","41","1","Joy","0.7889637599201608786","342.404147465437745268","82.1782178217821694943"
"122216","23:02:45","293","293","incompatibletest","5","targetAright","32","23","0","685","4","bm14_nc.jpg","0.7750787851216263125","334.3053571428571331126","81.3725490196078453664"
"122216","23:02:45","293","293","incompatibletest","5","targetAright","33","23","1","350","1","bf14_nc.jpg","0.736287706785872631","316.5458874458873879121","81.5533980582524264946"
"122216","23:02:45","293","293","incompatibletest","5","attributeB","34","23","1","741","1","Evil","0.7282705215550540068","311.3310924369748136087","81.7307692307692263967"
"122216","23:02:45","293","293","incompatibletest","5","attributeB","35","23","1","539","5","Terrible","0.706890528388064876","300.6428571428571103752","81.9047619047618979948"
"122216","23:02:45","293","293","incompatibletest","5","attributeA","36","18","1","571","1","Joy","0.6888082674484882206","291.4373015873015901889","82.0754716981132048659"
"122216","23:02:45","293","293","incompatibletest","5","attributeA","37","18","1","536","5","Glorious","0.6692025473978819861","281.7833976833976521448","82.2429906542055988439"
"122216","23:02:45","293","293","incompatibletest","5","attributeA","38","18","1","439","4","Love","0.6437888652118189947","270.0849624060150517835","82.4074074074074047758"
"122216","23:02:45","293","293","incompatibletest","5","attributeB","39","23","0","979","2","Agony","0.6521579525423844004","272.8326007326006674703","81.6513761467889906953"
"122216","23:02:45","293","293","incompatibletest","5","attributeA","40","18","1","711","6","Pleasure","0.6456261447798796738","268.7428571428571331126","81.8181818181818272251"
"122216","23:02:45","293","293","incompatibletest","5","attributeB","41","23","0","1000","4","Nasty","0.6547871799612398069","271.9013937282229562697","81.081081081081080697"
"122216","23:02:45","293","293","incompatibletest","5","attributeA","42","18","1","963","3","Laughter","0.6618776547113700559","274.0285714285714675498","81.25"
"122216","23:02:45","293","293","incompatibletest","5","targetAright","43","23","1","872","4","bm14_nc.jpg","0.6643346754300145651","273.9405315614617393294","81.4159292035398323151"
"122216","23:02:45","293","293","incompatibletest","5","attributeA","44","18","1","1458","2","Happy","0.6894362451463772468","287.1746753246752632549","81.5789473684210548754"
"122216","23:02:45","293","293","incompatibletest","5","attributeA","45","18","1","386","7","Peace","0.6640587935896514749","275.998412698412721511","81.7391304347826093135"
"122216","23:02:45","293","293","incompatibletest","5","attributeA","46","18","1","712","8","Wonderful","0.6584475647428521539","272.3950310559006311451","81.8965517241379359348"
"122216","23:02:45","293","293","incompatibletest","5","attributeA","47","18","1","752","3","Laughter","0.6551287584659264418","269.7960486322187989572","82.0512820512820439944"
"122216","23:02:45","293","293","incompatibletest","5","attributeA","48","18","1","222","7","Peace","0.6214595298997659389","256.2636904761905043415","82.2033898305084846925"
"122216","23:02:45","293","293","incompatibletest","5","attributeA","49","18","1","1099","5","Glorious","0.6337180940228748227","261.181632653061228666","82.352941176470579876"
"122216","23:02:45","293","293","incompatibletest","5","targetAright","50","23","1","1043","3","bf56_nc.jpg","0.6434787714646474921","264.7828571428570967328","82.5"
"122216","23:02:45","293","293","incompatibletest","5","attributeA","51","18","0","933","1","Joy","0.6486686647615861334","266.0859943977591228759","81.8181818181818272251"
"122216","23:02:45","293","293","incompatibletest","5","attributeA","52","18","1","235","8","Wonderful","0.6182536839778181026","253.9159340659340386992","81.9672131147541023211"
"122216","23:02:45","293","293","incompatibletest","5","targetAright","53","23","0","639","2","bf23_nc.jpg","0.6108251150116889017","249.8277628032344637177","81.3008130081300777192"
"122216","23:02:45","293","293","incompatibletest","5","attributeB","54","23","1","65","3","Awful","0.5719324844281528097","235.2613756613756095248","81.4516129032258078269"
"122216","23:02:45","293","293","incompatibletest","5","attributeB","55","23","1","125","1","Evil","0.5384463540743774645","222.3155844155844533816","81.5999999999999943157"
"122216","23:02:45","293","293","incompatibletest","5","attributeB","56","23","1","77","2","Agony","0.5036740050886245879","208.9750000000000227374","81.746031746031746934"
"122216","23:02:45","293","293","incompatibletest","5","attributeA","57","18","0","152","2","Happy","0.4745529050263541659","197.4182957393483093256","81.1023622047244145961"
"122216","23:02:45","293","293","incompatibletest","5","targetAright","58","23","1","135","6","bm56_nc.jpg","0.4457130288176384125","185.9669950738916668342","81.25"
"122216","23:02:45","293","293","incompatibletest","5","attributeB","59","23","0","254","6","Horrible","0.423948780949198134","176.920823244552025244","80.6201550387596910241"
"122216","23:02:45","293","293","incompatibletest","5","targetAright","60","23","0","273","5","bm23_nc.jpg","0.4038384754913144081","168.4928571428571331126","80"
"122216","23:02:45","293","293","incompatibletest","5","targetAright","61","23","0","370","1","bf14_nc.jpg","0.3888035176076612975","161.931381733021112268","79.3893129770992374006"
"122216","23:02:45","293","293","incompatibletest","5","targetAright","62","23","1","456","1","bf14_nc.jpg","0.3779370030687773108","156.9686635944700583423","79.5454545454545467464"
"122216","23:02:45","293","293","incompatibletest","5","attributeB","63","23","1","283","4","Nasty","0.3599181984805139289","149.4174603174602680156","79.6992481203007514523"
"122216","23:02:45","293","293","incompatibletest","5","attributeB","64","23","1","277","3","Awful","0.3422040231565502411","142.0084821428571331126","79.8507462686567066612"
"122216","23:02:45","293","293","incompatibletest","5","attributeA","65","18","0","776","6","Pleasure","0.3446061664337868313","142.5043956043955404311","79.2592592592592666279"
"122216","23:02:45","293","293","incompatibletest","5","targetAright","66","23","0","988","2","bf23_nc.jpg","0.3540828658276753416","146.1974025974026289987","78.676470588235289938"
"122216","23:02:45","293","293","incompatibletest","5","targetAright","67","23","1","112","5","bm23_nc.jpg","0.3300897534376034392","136.7055437100212884616","78.8321167883211728622"
"122216","23:02:45","293","293","incompatibletest","5","targetAright","68","23","1","97","3","bf56_nc.jpg","0.306318657366356828","127.2722689075629887157","78.985507246376812418"
"122216","23:02:45","293","293","incompatibletest","5","attributeB","69","23","1","75","7","Failure","0.2824859615494672571","117.7935817805382612278","79.1366906474820126505"
"122216","23:02:45","293","293","incompatibletest","5","attributeB","70","23","1","334","5","Terrible","0.2696582443509095706","112.2857142857142207504","79.2857142857142775938"
"122216","21:58:28","291","291","practice_compatibletest","1","attributeA","2","18","1","1654","5","Glorious","","0","0"
"122216","21:58:28","291","291","practice_compatibletest","1","attributeB","3","23","1","798","8","Hurt","","0","0"
"122216","21:58:28","291","291","practice_compatibletest","1","attributeA","4","18","1","608","8","Wonderful","","0","0"
"122216","21:58:28","291","291","practice_compatibletest","1","attributeB","5","23","1","550","1","Evil","","0","0"
"122216","21:58:28","291","291","practice_compatibletest","1","attributeA","6","18","1","769","7","Peace","","0","0"
"122216","21:58:28","291","291","practice_compatibletest","1","attributeB","7","23","1","660","4","Nasty","","0","0"
"122216","21:58:28","291","291","practice_compatibletest","1","attributeB","8","23","1","1360","6","Horrible","","0","0"
"122216","21:58:28","291","291","practice_compatibletest","1","attributeB","9","23","1","672","7","Failure","","0","0"
"122216","21:58:28","291","291","practice_compatibletest","1","attributeA","10","18","1","659","6","Pleasure","","0","0"
"122216","21:58:28","291","291","practice_compatibletest","1","attributeA","11","18","1","654","1","Joy","","0","0"
"122216","21:58:28","291","291","compatibletest","3","attributeB","1","23","1","1411","2","Agony","","-1411","100"
"122216","21:58:28","291","291","compatibletest","3","attributeA","2","18","1","625","4","Love","-1.1193844496864302496","-1018","100"
"122216","21:58:28","291","291","compatibletest","3","targetAleft","3","18","1","558","5","bm23_nc.jpg","-1.2163326570087404921","-864.6666666666666287711","100"
"122216","21:58:28","291","291","compatibletest","3","attributeB","4","23","1","789","5","Terrible","-1.3545433255658094751","-845.75","100"
"122216","21:58:28","291","291","compatibletest","3","attributeA","5","18","1","648","2","Happy","-1.4152624172471415243","-806.2000000000000454747","100"
"122216","21:58:28","291","291","compatibletest","3","targetAleft","6","18","1","640","4","bm14_nc.jpg","-1.4620369923224683095","-778.5","100"
"122216","21:58:28","291","291","compatibletest","3","attributeA","7","18","0","1864","3","Laughter","-1.3107434208167860756","-933.5714285714285551876","85.7142857142857081953"
"122216","21:58:28","291","291","compatibletest","3","attributeA","8","18","1","615","8","Wonderful","-1.3208587212761389029","-893.75","87.5"
"122216","21:58:28","291","291","compatibletest","3","attributeA","9","18","1","737","5","Glorious","-1.3527967704428105478","-876.3333333333333712289","88.8888888888888857309"
"122216","21:58:28","291","291","compatibletest","3","attributeB","10","23","1","661","3","Awful","-1.371195116096809441","-854.7999999999999545253","90"
"122216","21:58:28","291","291","compatibletest","3","targetAleft","11","18","1","669","3","bf56_nc.jpg","-1.3901483840092399014","-837.9090909090908780854","90.9090909090909065071"
"122216","21:58:28","291","291","compatibletest","3","attributeB","12","23","1","732","4","Nasty","-1.4153121865602804608","-829.0833333333333712289","91.6666666666666571928"
"122216","21:58:28","291","291","compatibletest","3","attributeA","13","18","1","737","2","Happy","-1.4388647497342053061","-822","92.3076923076923065992"
"122216","21:58:28","291","291","compatibletest","3","attributeB","14","23","1","681","5","Terrible","-1.4553505069017458329","-811.9285714285714448124","92.8571428571428612031"
"122216","21:58:28","291","291","compatibletest","3","attributeB","15","23","1","860","8","Hurt","-1.4824659242466096121","-815.1333333333333257542","93.3333333333333285964"
"122216","21:58:28","291","291","compatibletest","3","targetAleft","16","18","1","972","1","bf14_nc.jpg","-1.5084405879459337196","-824.9375","93.75"
"122216","21:58:28","291","291","compatibletest","3","targetAleft","17","18","1","491","2","bf23_nc.jpg","-1.4977893271146032195","-805.2941176470587834046","94.1176470588235218884"
"122216","21:58:28","291","291","compatibletest","3","attributeA","18","18","1","605","6","Pleasure","-1.503189778201811988","-794.1666666666666287711","94.4444444444444428655"
"122216","21:58:28","291","291","compatibletest","3","targetAleft","19","18","1","483","6","bm56_nc.jpg","-1.4949797085528866436","-777.7894736842105203323","94.7368421052631504153"
"122216","21:58:28","291","291","compatibletest","3","attributeB","20","23","1","649","7","Failure","-1.5052451194258025247","-771.3500000000000227374","95"
"122216","21:58:28","291","291","compatibletest","3","attributeB","21","23","1","797","3","Awful","-1.5226813498225957311","-772.5714285714285551876","95.2380952380952265912"
"122216","21:58:28","291","291","compatibletest","3","attributeB","22","23","1","815","6","Horrible","-1.5393621158053301112","-774.5","95.4545454545454532536"
"122216","21:58:28","291","291","compatibletest","3","targetAleft","23","18","1","520","1","bf14_nc.jpg","-1.5366781248397558546","-763.4347826086956274594","95.6521739130434838216"
"122216","21:58:28","291","291","compatibletest","3","targetAleft","24","18","1","434","6","bm56_nc.jpg","-1.5254927252544880911","-749.7083333333333712289","95.8333333333333428072"
"122216","21:58:28","291","291","compatibletest","3","attributeB","25","23","1","682","2","Agony","-1.5362266517564711066","-747","96"
"122216","21:58:28","291","291","compatibletest","3","targetAleft","26","18","1","581","5","bm23_nc.jpg","-1.5404170509234096365","-740.61538461538464162","96.153846153846160405"
"122216","21:58:28","291","291","compatibletest","3","attributeB","27","23","1","640","1","Evil","-1.5483903008808983515","-736.8888888888889141526","96.2962962962962905067"
"122216","21:58:28","291","291","compatibletest","3","attributeA","28","18","1","641","1","Joy","-1.556168205954810535","-733.4642857142856655628","96.4285714285714306016"
"122216","21:58:28","291","291","compatibletest","3","attributeB","29","23","1","685","4","Nasty","-1.5656575326866617459","-731.7931034482758150261","96.5517241379310320326"
"122216","21:58:28","291","291","compatibletest","3","attributeB","30","23","0","1171","3","Awful","-1.5646884209893208162","-746.4333333333332802795","93.3333333333333285964"
"122216","21:58:28","291","291","compatibletest","3","attributeB","31","23","1","737","8","Hurt","-1.5746634839847020171","-746.1290322580645124617","93.5483870967741921731"
"122216","21:58:28","291","291","compatibletest","3","targetAleft","32","18","1","542","3","bf56_nc.jpg","-1.5749283594223424387","-739.75","93.75"
"122216","21:58:28","291","291","compatibletest","3","attributeB","33","23","1","746","5","Terrible","-1.5844998996891539456","-739.9393939393939945148","93.9393939393939376714"
"122216","21:58:28","291","291","compatibletest","3","attributeA","34","18","1","819","3","Laughter","-1.5945654336302517162","-742.2647058823529278015","94.1176470588235218884"
"122216","21:58:28","291","291","compatibletest","3","targetAleft","35","18","0","1063","4","bm14_nc.jpg","-1.5990489189523633407","-751.4285714285714448124","91.4285714285714306016"
"122216","21:58:28","291","291","compatibletest","3","attributeB","36","23","1","710","7","Failure","-1.6063511759438000581","-750.2777777777778283053","91.6666666666666571928"
"122216","21:58:28","291","291","compatibletest","3","attributeA","37","18","1","696","7","Peace","-1.6129854524559208429","-748.8108108108108353917","91.8918918918919018779"
"122216","21:58:28","291","291","compatibletest","3","targetAleft","38","18","1","631","2","bf23_nc.jpg","-1.6170749116765079645","-745.7105263157894796677","92.1052631578947398339"
"122216","21:58:28","291","291","compatibletest","3","attributeB","39","23","1","595","2","Agony","-1.619508418187581178","-741.8461538461538111733","92.3076923076923065992"
"122216","21:58:28","291","291","compatibletest","3","attributeA","40","18","1","682","4","Love","-1.6252970390394130273","-740.3500000000000227374","92.5"
"122216","21:58:28","291","291","compatibletest","3","targetAleft","41","18","1","597","1","bf14_nc.jpg","-1.6277886249081283676","-736.8536585365853852636","92.6829268292682968422"
"122216","21:58:28","291","291","compatibletest","3","attributeA","42","18","0","1275","1","Joy","-1.6167820211128556274","-749.6666666666666287711","90.4761904761904816041"
"122216","21:58:28","291","291","compatibletest","3","attributeA","43","18","1","730","5","Glorious","-1.6231361328081790329","-749.209302325581347759","90.6976744186046488494"
"122216","21:58:28","291","291","compatibletest","3","attributeB","44","23","1","710","1","Evil","-1.628860309939995199","-748.3181818181818698577","90.9090909090909065071"
"122216","21:58:28","291","291","compatibletest","3","attributeA","45","18","1","620","8","Wonderful","-1.6317173567158937963","-745.4666666666666969832","91.1111111111111142691"
"122216","21:58:28","291","291","compatibletest","3","attributeA","46","18","1","1837","2","Happy","-1.5627851551437186295","-769.195652173913003935","91.3043478260869534324"
"122216","21:58:28","291","291","compatibletest","3","attributeA","47","18","1","669","7","Peace","-1.5671262871491700164","-767.0638297872339990136","91.4893617021276526202"
"122216","21:58:28","291","291","compatibletest","3","attributeB","48","23","0","968","6","Horrible","-1.5739796092716202836","-771.25","89.5833333333333428072"
"122216","21:58:28","291","291","compatibletest","3","attributeB","49","23","1","571","5","Terrible","-1.574484760081994672","-767.1632653061224118574","89.7959183673469425457"
"122216","21:58:28","291","291","compatibletest","3","attributeA","50","18","1","650","6","Pleasure","-1.5779508504120456358","-764.8200000000000500222","90"
"122216","21:58:28","291","291","compatibletest","3","attributeA","51","18","1","617","4","Love","-1.5803131777611354458","-761.9215686274509380382","90.1960784313725554284"
"122216","21:58:28","291","291","compatibletest","3","attributeB","52","23","1","750","1","Evil","-1.5859849752654213706","-761.6923076923077360334","90.3846153846153868017"
"122216","21:58:28","291","291","compatibletest","3","attributeA","53","18","1","602","3","Laughter","-1.5877596113037519832","-758.6792452830188722146","90.5660377358490649158"
"122216","21:58:28","291","291","compatibletest","3","targetAleft","54","18","1","608","5","bm23_nc.jpg","-1.5897687879349762241","-755.8888888888889141526","90.740740740740747583"
"122216","21:58:28","291","291","compatibletest","3","targetAleft","55","18","1","481","3","bf56_nc.jpg","-1.5865904098729874949","-750.8909090909090764399","90.9090909090909065071"
"122216","21:58:28","291","291","compatibletest","3","targetAleft","56","18","1","449","4","bm14_nc.jpg","-1.5820500012557017211","-745.5","91.0714285714285693984"
"122216","21:58:28","291","291","compatibletest","3","attributeB","57","23","1","1257","3","Awful","-1.5780542844375662348","-754.4736842105263576741","91.2280701754385887625"
"122216","21:58:28","291","291","compatibletest","3","attributeB","58","23","1","685","4","Nasty","-1.5821025237528769658","-753.2758620689654662783","91.379310344827587187"
"122216","21:58:28","291","291","compatibletest","3","targetAleft","59","18","1","611","6","bm56_nc.jpg","-1.5841890519883188304","-750.8644067796610670484","91.5254237288135641393"
"122216","21:58:28","291","291","compatibletest","3","attributeB","60","23","1","1177","8","Hurt","-1.5839734308704718213","-757.9666666666666969832","91.6666666666666571928"
"122216","21:58:28","291","291","compatibletest","3","attributeB","61","23","1","740","6","Horrible","-1.5886769869735850591","-757.6721311475409947889","91.8032786885245855046"
"122216","21:58:28","291","291","compatibletest","3","attributeB","62","23","1","635","2","Agony","-1.5911674741085142237","-755.693548387096825536","91.9354838709677437691"
"122216","21:58:28","291","291","compatibletest","3","targetAleft","63","18","1","691","2","bf23_nc.jpg","-1.5948952214384990445","-754.6666666666666287711","92.0634920634920632665"
"122216","21:58:28","291","291","compatibletest","3","targetAleft","64","18","1","526","3","bf56_nc.jpg","-1.5939188427364483491","-751.09375","92.1875"
"122216","21:58:28","291","291","compatibletest","3","attributeB","65","23","1","620","7","Failure","-1.596011540698465847","-749.0769230769230944134","92.3076923076923065992"
"122216","21:58:28","291","291","compatibletest","3","attributeA","66","18","1","632","4","Love","-1.5984005994056902367","-747.3030303030302547995","92.4242424242424220893"
"122216","21:58:28","291","291","compatibletest","3","attributeB","67","23","1","698","3","Awful","-1.6021097307015548239","-746.5671641791044521597","92.5373134328358162293"
"122216","21:58:28","291","291","compatibletest","3","attributeB","68","23","0","1095","5","Terrible","-1.6036364676231706916","-751.6911764705882887938","91.176470588235289938"
"122216","21:58:28","291","291","compatibletest","3","targetAleft","69","18","1","557","2","bf23_nc.jpg","-1.6037545652081384162","-748.8695652173912549188","91.3043478260869534324"
"122216","21:58:28","291","291","compatibletest","3","attributeB","70","23","1","665","6","Horrible","-1.6066595248573403154","-747.671428571428577925","91.4285714285714306016"
"122216","21:58:28","291","291","incompatibletest","5","targetAright","1","23","1","865","1","bf14_nc.jpg","0.4222702431418295377","117.328571428571422075","91.5492957746478879244"
"122216","21:58:28","291","291","incompatibletest","5","attributeB","2","23","1","717","7","Failure","0.1600344396323314933","43.328571428571422075","91.6666666666666571928"
"122216","21:58:28","291","291","incompatibletest","5","attributeB","3","23","1","602","8","Hurt","-0.0731869711838982473","-19.671428571428577925","91.7808219178082254075"
"122216","21:58:28","291","291","incompatibletest","5","attributeB","4","23","1","563","1","Evil","-0.2264466536390682128","-60.921428571428577925","91.8918918918919018779"
"122216","21:58:28","291","291","incompatibletest","5","attributeA","5","18","1","635","2","Happy","-0.2660041515101577714","-71.2714285714286006623","92"
"122216","21:58:28","291","291","incompatibletest","5","targetAright","6","23","1","500","6","bm56_nc.jpg","-0.3739500710524518712","-100.671428571428577925","92.1052631578947398339"
"122216","21:58:28","291","291","incompatibletest","5","attributeB","7","23","1","661","4","Nasty","-0.3691252276839441238","-98.671428571428577925","92.2077922077922096378"
"122216","21:58:28","291","291","incompatibletest","5","targetAright","8","23","1","601","4","bm14_nc.jpg","-0.3931178039051489992","-104.671428571428577925","92.3076923076923065992"
"122216","21:58:28","291","291","incompatibletest","5","attributeA","9","18","1","699","6","Pleasure","-0.3728062542083857567","-98.4492063492064062302","92.4050632911392426649"
"122216","21:58:28","291","291","incompatibletest","5","targetAright","10","23","1","545","5","bm23_nc.jpg","-0.4128099410217281884","-108.8714285714286233997","92.5"
"122216","21:58:28","291","291","incompatibletest","5","targetAright","11","23","1","550","2","bf23_nc.jpg","-0.4443190217632336791","-116.9441558441558299819","92.5925925925925952242"
"122216","21:58:28","291","291","incompatibletest","5","attributeA","12","18","1","597","1","Joy","-0.4570867650893716827","-119.7547619047619491539","92.6829268292682968422"
"122216","21:58:28","291","291","incompatibletest","5","attributeA","13","18","1","820","8","Wonderful","-0.4042941727024300103","-104.9791208791208418916","92.7710843373493929676"
"122216","21:58:28","291","291","incompatibletest","5","attributeA","14","18","1","581","7","Peace","-0.4228278206425084562","-109.3857142857142434877","92.8571428571428612031"
"122216","21:58:28","291","291","incompatibletest","5","targetAright","15","23","1","516","4","bm14_nc.jpg","-0.4547722617634981646","-117.5380952380952521708","92.9411764705882319504"
"122216","21:58:28","291","291","incompatibletest","5","attributeB","16","23","1","665","2","Agony","-0.4492426723900982966","-115.358928571428577925","93.0232558139534830843"
"122216","21:58:28","291","291","incompatibletest","5","attributeA","17","18","1","712","3","Laughter","-0.4340483314285440986","-110.671428571428577925","93.1034482758620640652"
"122216","21:58:28","291","291","incompatibletest","5","attributeA","18","18","1","594","5","Glorious","-0.4453287210290768905","-113.0603174603174920776","93.1818181818181727749"
"122216","21:58:28","291","291","incompatibletest","5","targetAright","19","23","1","525","1","bf14_nc.jpg","-0.4688840469425780699","-118.829323308270659254","93.2584269662921343524"
"122216","21:58:28","291","291","incompatibletest","5","attributeA","20","18","1","1402","7","Peace","-0.3074870345733358157","-80.171428571428577925","93.3333333333333285964"
"122216","21:58:28","291","291","incompatibletest","5","attributeA","21","18","1","671","4","Love","-0.3085410726567638928","-80.0047619047619491539","93.4065934065934015962"
"122216","21:58:28","291","291","incompatibletest","5","targetAright","22","23","1","542","6","bm56_nc.jpg","-0.3313505402959746604","-85.7168831168830820388","93.478260869565218627"
"122216","21:58:28","291","291","incompatibletest","5","attributeB","23","23","1","679","4","Nasty","-0.3303080369139028138","-84.9757763975155739899","93.5483870967741921731"
"122216","21:58:28","291","291","incompatibletest","5","attributeB","24","23","1","594","8","Hurt","-0.3427797812515347431","-87.838095238095206696","93.6170212765957501233"
"122216","21:58:28","291","291","incompatibletest","5","attributeA","25","18","1","636","3","Laughter","-0.3481735102433198836","-88.7914285714285824724","93.6842105263157947093"
"122216","21:58:28","291","291","incompatibletest","5","attributeB","26","23","1","961","5","Terrible","-0.3031384969174783506","-77.171428571428577925","93.75"
"122216","21:58:28","291","291","incompatibletest","5","attributeA","27","18","1","652","6","Pleasure","-0.3073257476414354428","-77.8566137566137967951","93.8144329896907152033"
"122216","21:58:28","291","291","incompatibletest","5","attributeB","28","23","1","580","6","Horrible","-0.3210826674476372489","-81.0642857142856883002","93.8775510204081626853"
"122216","21:58:28","291","291","incompatibletest","5","attributeB","29","23","1","1467","7","Failure","-0.2043040319754594047","-53.4645320197043929511","93.9393939393939376714"
"122216","21:58:28","291","291","incompatibletest","5","attributeB","30","23","1","738","2","Agony","-0.1997562033784060498","-52.0047619047619491539","94"
"122216","21:58:28","291","291","incompatibletest","5","attributeA","31","18","1","686","8","Wonderful","-0.2019424451313923674","-52.3165898617511402335","94.0594059405940470242"
"122216","21:58:28","291","291","incompatibletest","5","targetAright","32","23","1","524","5","bm23_nc.jpg","-0.2229902569680414226","-57.671428571428577925","94.1176470588235218884"
"122216","21:58:28","291","291","incompatibletest","5","attributeB","33","23","1","773","1","Evil","-0.214315188695533454","-55.1562770562770765537","94.1747572815533970925"
"122216","21:58:28","291","291","incompatibletest","5","attributeA","34","18","1","616","2","Happy","-0.2239344494545512654","-57.4067226890756501234","94.2307692307692263967"
"122216","21:58:28","291","291","incompatibletest","5","attributeA","35","18","1","750","5","Glorious","-0.2183415248201844017","-55.7000000000000454747","94.2857142857142775938"
"122216","21:58:28","291","291","incompatibletest","5","attributeB","36","23","1","717","3","Awful","-0.2166608422160030412","-55.0047619047619491539","94.3396226415094361073"
"122216","21:58:28","291","291","incompatibletest","5","attributeA","37","18","1","706","1","Joy","-0.2162659713088392888","-54.6444015444016031324","94.392523364485981574"
"122216","21:58:28","291","291","incompatibletest","5","targetAright","38","23","1","508","3","bf56_nc.jpg","-0.2357912999313288294","-59.5135338345864965959","94.4444444444444428655"
"122216","21:58:28","291","291","incompatibletest","5","targetAright","39","23","1","502","2","bf23_nc.jpg","-0.2549429832344201063","-64.286813186813219545","94.4954128440366929453"
"122216","21:58:28","291","291","incompatibletest","5","targetAright","40","23","1","447","6","bm56_nc.jpg","-0.2781024084943992114","-70.1964285714285551876","94.5454545454545467464"
"122216","21:58:28","291","291","incompatibletest","5","attributeA","41","18","1","1064","4","Love","-0.2399155091124197114","-60.7689895470383589782","94.594594594594596515"
"122216","21:58:28","291","291","incompatibletest","5","attributeA","42","18","1","684","6","Pleasure","-0.2412576909255133573","-60.838095238095206696","94.6428571428571387969"
"122216","21:58:28","291","291","incompatibletest","5","attributeA","43","18","1","698","1","Joy","-0.2413048808826416258","-60.5784053156146455876","94.6902654867256643456"
"122216","21:58:28","291","291","incompatibletest","5","attributeA","44","18","1","600","3","Laughter","-0.2500290327294024673","-62.5577922077922039534","94.7368421052631504153"
"122216","21:58:28","291","291","incompatibletest","5","attributeA","45","18","0","1134","7","Peace","-0.2086688469241062271","-52.5825396825397319844","93.9130434782608745081"
"122216","21:58:28","291","291","incompatibletest","5","targetAright","46","23","1","541","5","bm23_nc.jpg","-0.22240470269529658","-55.9322981366459544006","93.9655172413793167152"
"122216","21:58:28","291","291","incompatibletest","5","attributeA","47","18","1","690","8","Wonderful","-0.2235034372375547529","-55.9693009118541340285","94.0170940170940099279"
"122216","21:58:28","291","291","incompatibletest","5","targetAright","48","23","0","1060","4","bm14_nc.jpg","-0.1922446221723694837","-48.296428571428577925","93.2203389830508371006"
"122216","21:58:28","291","291","incompatibletest","5","attributeA","49","18","1","927","2","Happy","-0.1740398045791030635","-43.6510204081632764428","93.2773109243697433612"
"122216","21:58:28","291","291","incompatibletest","5","attributeA","50","18","1","636","5","Glorious","-0.1801180239501692371","-45.0114285714286097573","93.3333333333333285964"
"122216","21:58:28","291","291","incompatibletest","5","attributeA","51","18","1","920","6","Pleasure","-0.1633560453866996776","-40.7498599439776398867","93.3884297520661164071"
"122216","21:58:28","291","291","incompatibletest","5","targetAright","52","23","1","597","3","bf56_nc.jpg","-0.1723408932903600921","-42.8637362637363139584","93.4426229508196826146"
"122216","21:58:28","291","291","incompatibletest","5","attributeA","53","18","1","696","8","Wonderful","-0.1737111958718551841","-43.0299191374663223542","93.4959349593495971931"
"122216","21:58:28","291","291","incompatibletest","5","attributeA","54","18","1","858","4","Love","-0.1627336538669618693","-40.1899470899470543372","93.5483870967741921731"
"122216","21:58:28","291","291","incompatibletest","5","attributeB","55","23","1","762","1","Evil","-0.1593547205263391997","-39.1987012987012803933","93.6000000000000085265"
"122216","21:58:28","291","291","incompatibletest","5","targetAright","56","23","1","594","1","bf14_nc.jpg","-0.1681331368860718156","-41.2428571428571331126","93.6507936507936449289"
"122216","21:58:28","291","291","incompatibletest","5","attributeB","57","23","0","1568","2","Agony","-0.1023009592694358316","-26.1275689223057270283","92.9133858267716590262"
"122216","21:58:28","291","291","incompatibletest","5","targetAright","58","23","1","622","5","bm23_nc.jpg","-0.109367078595551448","-27.8438423645320654032","92.96875"
"122216","21:58:28","291","291","incompatibletest","5","attributeA","59","18","1","975","3","Laughter","-0.0924225293528138508","-23.5188861985471930893","93.0232558139534830843"
"122216","21:58:28","291","291","incompatibletest","5","attributeB","60","23","1","1838","3","Awful","-0.0182661272417265867","-4.9547619047618809418","93.0769230769230802025"
"122216","21:58:28","291","291","incompatibletest","5","attributeA","61","18","1","722","2","Happy","-0.0195931003759253208","-5.2943793911007333008","93.1297709923664172038"
"122216","21:58:28","291","291","incompatibletest","5","attributeB","62","23","1","735","4","Nasty","-0.0201102265764195737","-5.4133640552995530015","93.1818181818181727749"
"122216","21:58:28","291","291","incompatibletest","5","attributeA","63","18","1","1055","7","Peace","-0.0016667782683096283","-0.4492063492064062302","93.2330827067669076769"
"122216","21:58:28","291","291","incompatibletest","5","attributeA","64","18","1","819","1","Joy","0.002503414290288586","0.672321428571422075","93.2835820895522402907"
"122216","21:58:28","291","291","incompatibletest","5","targetAright","65","23","1","664","6","bm56_nc.jpg","-0.0023361179730495645","-0.6252747252747212769","93.3333333333333285964"
"122216","21:58:28","291","291","incompatibletest","5","targetAright","66","23","1","580","4","bm14_nc.jpg","-0.0118191271546622539","-3.1562770562770765537","93.3823529411764781116"
"122216","21:58:28","291","291","incompatibletest","5","attributeB","67","23","1","1335","6","Horrible","0.0208912887433005366","5.6569296375266731047","93.4306569343065689282"
"122216","21:58:28","291","291","incompatibletest","5","attributeB","68","23","1","555","8","Hurt","0.0101380623349063836","2.7403361344537415789","93.478260869565218627"
"122216","21:58:28","291","291","incompatibletest","5","attributeB","69","23","1","679","5","Terrible","0.0063306272211788783","1.7053830227742992065","93.525179856115101984"
"122216","21:58:28","291","291","incompatibletest","5","targetAright","70","23","1","638","3","bf56_nc.jpg","0.000425521801628449","0.1142857142857565123","93.5714285714285693984"
"122216","21:57:38","290","290","practice_incompatibletest","1","attributeA","2","18","1","1247","4","Love","","0","0"
"122216","21:57:38","290","290","practice_incompatibletest","1","attributeB","3","23","1","666","5","Terrible","","0","0"
"122216","21:57:38","290","290","practice_incompatibletest","1","attributeA","4","18","1","589","7","Peace","","0","0"
"122216","21:57:38","290","290","practice_incompatibletest","1","attributeB","5","23","1","669","2","Agony","","0","0"
"122216","21:57:38","290","290","practice_incompatibletest","1","attributeB","6","23","1","550","3","Awful","","0","0"
"122216","21:57:38","290","290","practice_incompatibletest","1","attributeA","7","18","1","610","5","Glorious","","0","0"
"122216","21:57:38","290","290","practice_incompatibletest","1","attributeA","8","18","0","1172","2","Happy","","0","0"
"122216","21:57:38","290","290","practice_incompatibletest","1","attributeB","9","23","1","723","8","Hurt","","0","0"
"122216","21:57:38","290","290","practice_incompatibletest","1","attributeA","10","18","1","770","1","Joy","","0","0"
"122216","21:57:38","290","290","practice_incompatibletest","1","attributeB","11","23","1","767","4","Nasty","","0","0"
"122216","21:57:38","290","290","incompatibletest","3","targetAright","1","23","1","1463","4","bm14_nc.jpg","","1463","100"
"122216","21:57:38","290","290","incompatibletest","3","targetAright","2","23","1","564","5","bm23_nc.jpg","1.0579749110031784198","1013.5","100"
"122216","21:57:38","290","290","incompatibletest","3","attributeA","3","18","1","596","8","Wonderful","1.1823691868171672947","874.3333333333333712289","100"
"122216","21:57:38","290","290","incompatibletest","3","attributeA","4","18","1","728","6","Pleasure","1.3040115877409172995","837.75","100"
"122216","21:57:38","290","290","incompatibletest","3","attributeB","5","23","1","632","7","Failure","1.3644303853009922545","796.6000000000000227374","100"
"122216","21:57:38","290","290","incompatibletest","3","targetAright","6","23","1","775","1","bf14_nc.jpg","1.4411544507837892315","793","100"
"122216","21:57:38","290","290","incompatibletest","3","targetAright","7","23","1","677","6","bm56_nc.jpg","1.4864012982219676484","776.4285714285714448124","100"
"122216","21:57:38","290","290","incompatibletest","3","attributeB","8","23","1","660","6","Horrible","1.5216117223599625596","761.875","100"
"122216","21:57:38","290","290","incompatibletest","3","attributeA","9","18","1","661","3","Laughter","1.5522535406650674883","750.6666666666666287711","100"
"122216","21:57:38","290","290","incompatibletest","3","attributeA","10","18","1","754","1","Joy","1.587930475185568957","751","100"
"122216","21:57:38","290","290","incompatibletest","3","attributeA","11","18","0","1094","6","Pleasure","1.5991236283232919124","782.1818181818181301423","90.9090909090909065071"
"122216","21:57:38","290","290","incompatibletest","3","attributeA","12","18","1","543","5","Glorious","1.59714061600370405","762.25","91.6666666666666571928"
"122216","21:57:38","290","290","incompatibletest","3","attributeA","13","18","1","686","2","Happy","1.6165368964851278832","756.38461538461535838","92.3076923076923065992"
"122216","21:57:38","290","290","incompatibletest","3","attributeA","14","18","1","611","3","Laughter","1.6263382593823356714","746","92.8571428571428612031"
"122216","21:57:38","290","290","incompatibletest","3","attributeB","15","23","1","617","1","Evil","1.6366229001864660564","737.3999999999999772626","93.3333333333333285964"
"122216","21:57:38","290","290","incompatibletest","3","attributeB","16","23","1","674","1","Evil","1.6514841390234309415","733.4375","93.75"
"122216","21:57:38","290","290","incompatibletest","3","attributeA","17","18","1","662","7","Peace","1.6643408140304531972","729.2352941176470721985","94.1176470588235218884"
"122216","21:57:38","290","290","incompatibletest","3","attributeB","18","23","1","633","4","Nasty","1.6741476067029841257","723.8888888888889141526","94.4444444444444428655"
"122216","21:57:38","290","290","incompatibletest","3","attributeB","19","23","1","535","5","Terrible","1.6737016211420188139","713.9473684210526016614","94.7368421052631504153"
"122216","21:57:38","290","290","incompatibletest","3","attributeB","20","23","1","652","8","Hurt","1.684305163217001633","710.8500000000000227374","95"
"122216","21:57:38","290","290","incompatibletest","3","attributeA","21","18","0","1063","8","Wonderful","1.67916376718610727","727.6190476190475919793","90.4761904761904816041"
"122216","21:57:38","290","290","incompatibletest","3","targetAright","22","23","1","978","3","bf56_nc.jpg","1.6849907062932396595","739","90.9090909090909065071"
"122216","21:57:38","290","290","incompatibletest","3","attributeA","23","18","1","820","4","Love","1.6969437611358537676","742.5217391304347529513","91.3043478260869534324"
"122216","21:57:38","290","290","incompatibletest","3","attributeA","24","18","1","659","6","Pleasure","1.7041264190876104223","739.0416666666666287711","91.6666666666666571928"
"122216","21:57:38","290","290","incompatibletest","3","attributeA","25","18","1","816","3","Laughter","1.7145225256495919552","742.1200000000000045475","92"
"122216","21:57:38","290","290","incompatibletest","3","attributeA","26","18","1","650","7","Peace","1.7202782083341352504","738.5769230769230944134","92.3076923076923065992"
"122216","21:57:38","290","290","incompatibletest","3","attributeB","27","23","1","695","6","Horrible","1.7277677648580638259","736.9629629629629334886","92.5925925925925952242"
"122216","21:57:38","290","290","incompatibletest","3","attributeA","28","18","1","617","2","Happy","1.7312310791421621214","732.6785714285714448124","92.8571428571428612031"
"122216","21:57:38","290","290","incompatibletest","3","targetAright","29","23","1","683","2","bf23_nc.jpg","1.7377316338812101026","730.9655172413793025044","93.1034482758620640652"
"122216","21:57:38","290","290","incompatibletest","3","targetAright","30","23","1","625","5","bm23_nc.jpg","1.7414490332063552458","727.4333333333332802795","93.3333333333333285964"
"122216","21:57:38","290","290","incompatibletest","3","targetAright","31","23","1","625","6","bm56_nc.jpg","1.7451145993130381395","724.1290322580645124617","93.5483870967741921731"
"122216","21:57:38","290","290","incompatibletest","3","attributeA","32","18","1","644","5","Glorious","1.7495729119407954499","721.625","93.75"
"122216","21:57:38","290","290","incompatibletest","3","attributeB","33","23","1","671","3","Awful","1.7548536973728372512","720.0909090909091219146","93.9393939393939376714"
"122216","21:57:38","290","290","incompatibletest","3","attributeB","34","23","1","699","2","Agony","1.7606299853477507256","719.4705882352941443969","94.1176470588235218884"
"122216","21:57:38","290","290","incompatibletest","3","attributeA","35","18","1","686","1","Joy","1.7658519999984094717","718.5142857142857337749","94.2857142857142775938"
"122216","21:57:38","290","290","incompatibletest","3","targetAright","36","23","1","597","1","bf14_nc.jpg","1.7676045912464504184","715.1388888888889141526","94.4444444444444428655"
"122216","21:57:38","290","290","incompatibletest","3","attributeA","37","18","1","761","4","Love","1.7732838217692077354","716.3783783783783292165","94.594594594594596515"
"122216","21:57:38","290","290","incompatibletest","3","attributeA","38","18","1","762","8","Wonderful","1.7786906800628476955","717.5789473684210406645","94.7368421052631504153"
"122216","21:57:38","290","290","incompatibletest","3","attributeB","39","23","1","717","7","Failure","1.7835970521999888749","717.5641025641025407822","94.8717948717948615922"
"122216","21:57:38","290","290","incompatibletest","3","attributeB","40","23","1","760","2","Agony","1.7885218669783149448","718.625","95"
"122216","21:57:38","290","290","incompatibletest","3","attributeA","41","18","1","758","1","Joy","1.793227575301615806","719.5853658536585726324","95.1219512195121978948"
"122216","21:57:38","290","290","incompatibletest","3","targetAright","42","23","1","663","4","bm14_nc.jpg","1.7965205455824289071","718.2380952380951839586","95.2380952380952265912"
"122216","21:57:38","290","290","incompatibletest","3","attributeB","43","23","1","745","3","Awful","1.8008363141489169834","718.860465116279101494","95.3488372093023315301"
"122216","21:57:38","290","290","incompatibletest","3","attributeA","44","18","1","684","8","Wonderful","1.8043228264078257084","718.0681818181818698577","95.4545454545454532536"
"122216","21:57:38","290","290","incompatibletest","3","targetAright","45","23","1","685","2","bf23_nc.jpg","1.8077073172276238999","717.3333333333333712289","95.5555555555555571345"
"122216","21:57:38","290","290","incompatibletest","3","attributeB","46","23","1","741","8","Hurt","1.8115345864351604099","717.8478260869565019675","95.6521739130434838216"
"122216","21:57:38","290","290","incompatibletest","3","attributeA","47","18","1","726","7","Peace","1.8151423970654443352","718.0212765957446663379","95.7446808510638334155"
"122216","21:57:38","290","290","incompatibletest","3","targetAright","48","23","1","609","3","bf56_nc.jpg","1.8162082351313566519","715.75","95.8333333333333428072"
"122216","21:57:38","290","290","incompatibletest","3","targetAright","49","23","1","665","3","bf56_nc.jpg","1.8188160056363928962","714.7142857142856655628","95.9183673469387656496"
"122216","21:57:38","290","290","incompatibletest","3","attributeB","50","23","1","596","1","Evil","1.8194291222823102405","712.3400000000000318323","96"
"122216","21:57:38","290","290","incompatibletest","3","targetAright","51","23","1","621","1","bf14_nc.jpg","1.8208923101797607202","710.5490196078430926718","96.0784313725490193292"
"122216","21:57:38","290","290","incompatibletest","3","attributeA","52","18","1","760","6","Pleasure","1.8240427024602017259","711.5","96.153846153846160405"
"122216","21:57:38","290","290","incompatibletest","3","attributeB","53","23","1","626","4","Nasty","1.8255461042591201171","709.8867924528301500686","96.2264150943396288085"
"122216","21:57:38","290","290","incompatibletest","3","attributeA","54","18","1","744","4","Love","1.8285370956510951235","710.5185185185184764123","96.2962962962962905067"
"122216","21:57:38","290","290","incompatibletest","3","targetAright","55","23","1","620","5","bm23_nc.jpg","1.8297918858662853836","708.8727272727272747943","96.3636363636363597607"
"122216","21:57:38","290","290","incompatibletest","3","targetAright","56","23","1","568","4","bm14_nc.jpg","1.8293820347668763304","706.3571428571428896248","96.4285714285714306016"
"122216","21:57:38","290","290","incompatibletest","3","attributeA","57","18","1","644","5","Glorious","1.8312197727393020319","705.2631578947368780064","96.4912280701754383472"
"122216","21:57:38","290","290","incompatibletest","3","attributeB","58","23","1","701","5","Terrible","1.8337925157059546954","705.189655172413836226","96.5517241379310320326"
"122216","21:57:38","290","290","incompatibletest","3","targetAright","59","23","1","753","2","bf23_nc.jpg","1.8363754605526392272","706","96.6101694915254256557"
"122216","21:57:38","290","290","incompatibletest","3","attributeB","60","23","1","627","7","Failure","1.8376897729201076004","704.6833333333332802795","96.6666666666666714036"
"122216","21:57:38","290","290","incompatibletest","3","targetAright","61","23","1","581","6","bm56_nc.jpg","1.837759943980363575","702.6557377049180104223","96.7213114754098342019"
"122216","21:57:38","290","290","incompatibletest","3","attributeA","62","18","1","649","3","Laughter","1.8394988066732116394","701.7903225806451246171","96.774193548387103192"
"122216","21:57:38","290","290","incompatibletest","3","targetAright","63","23","1","599","4","bm14_nc.jpg","1.8401278930857436489","700.1587301587301226391","96.8253968253968224644"
"122216","21:57:38","290","290","incompatibletest","3","targetAright","64","23","1","638","3","bf56_nc.jpg","1.8416345145838277642","699.1875","96.875"
"122216","21:57:38","290","290","incompatibletest","3","attributeB","65","23","1","499","6","Horrible","1.8387416048749254394","696.1076923076923321787","96.9230769230769197975"
"122216","21:57:38","290","290","incompatibletest","3","attributeA","66","18","1","694","2","Happy","1.8409222018135267263","696.0757575757576205433","96.9696969696969688357"
"122216","21:57:38","290","290","incompatibletest","3","attributeB","67","23","1","564","8","Hurt","1.8406463912981196884","694.1044776119402968106","97.0149253731343321761"
"122216","21:57:38","290","290","incompatibletest","3","attributeA","68","18","0","1213","1","Joy","1.8207522662708988115","701.7352941176470721985","95.5882352941176520744"
"122216","21:57:38","290","290","incompatibletest","3","attributeA","69","18","1","657","3","Laughter","1.8226055703191530455","701.0869565217391254919","95.6521739130434838216"
"122216","21:57:38","290","290","incompatibletest","3","attributeA","70","18","1","561","7","Peace","1.8222980545609197556","699.0857142857142889625","95.7142857142857224062"
"122216","21:57:38","290","290","compatibletest","5","attributeA","1","18","1","1166","6","Pleasure","-1.6700118480405932164","-466.9142857142857110375","95.7746478873239368568"
"122216","21:57:38","290","290","compatibletest","5","attributeB","2","23","1","1650","3","Awful","-1.8205736964956586998","-708.9142857142857110375","95.8333333333333428072"
"122216","21:57:38","290","290","compatibletest","5","targetAleft","3","18","1","1062","2","bf23_nc.jpg","-1.755759157109699542","-593.5809523809524534954","95.8904109589040984929"
"122216","21:57:38","290","290","compatibletest","5","attributeB","4","23","0","2151","5","Terrible","-1.8174363738054326589","-808.1642857142857110375","94.594594594594596515"
"122216","21:57:38","290","290","compatibletest","5","attributeA","5","18","1","1614","4","Love","-1.8265274551923329494","-829.514285714285620088","94.6666666666666714036"
"122216","21:57:38","290","290","compatibletest","5","attributeB","6","23","1","652","1","Evil","-1.7174907550642104503","-683.4142857142857110375","94.7368421052631504153"
"122216","21:57:38","290","290","compatibletest","5","attributeA","7","18","1","753","2","Happy","-1.6263063121682956869","-593.485714285714379912","94.8051948051948016882"
"122216","21:57:38","290","290","compatibletest","5","targetAleft","8","18","1","986","1","bf14_nc.jpg","-1.5861344905008234463","-555.1642857142857110375","94.8717948717948615922"
"122216","21:57:38","290","290","compatibletest","5","attributeA","9","18","1","695","8","Wonderful","-1.4933517086180794209","-493.0253968253967968849","94.93670886075949511"
"122216","21:57:38","290","290","compatibletest","5","attributeB","10","23","1","774","4","Nasty","-1.424138866969735906","-451.2142857142856655628","95"
"122216","21:57:38","290","290","compatibletest","5","targetAleft","11","18","1","1534","6","bm56_nc.jpg","-1.4675466293562247078","-486.0961038961039548667","95.0617283950617348864"
"122216","21:57:38","290","290","compatibletest","5","attributeB","12","23","1","741","6","Horrible","-1.4022799974142114987","-449.0809523809524534954","95.1219512195121978948"
"122216","21:57:38","290","290","compatibletest","5","attributeB","13","23","1","613","2","Agony","-1.3150240573796248","-407.9142857142857110375","95.1807228915662619784"
"122216","21:57:38","290","290","compatibletest","5","attributeB","14","23","1","588","7","Failure","-1.2274978855250009424","-370.8428571428570421631","95.2380952380952265912"
"122216","21:57:38","290","290","compatibletest","5","targetAleft","15","18","1","642","5","bm23_nc.jpg","-1.1573479550711744945","-342.314285714285801987","95.2941176470588118264"
"122216","21:57:38","290","290","compatibletest","5","targetAleft","16","18","1","541","1","bf14_nc.jpg","-1.0706959902213024627","-311.0392857142857110375","95.3488372093023315301"
"122216","21:57:38","290","290","compatibletest","5","attributeB","17","23","1","997","1","Evil","-1.0732620267946100245","-310.2672268907563193352","95.4022988505747093768"
"122216","21:57:38","290","290","compatibletest","5","attributeB","18","23","1","546","4","Nasty","-0.9975867925078868437","-284.5253968253967968849","95.4545454545454532536"
"122216","21:57:38","290","290","compatibletest","5","attributeB","19","23","1","452","6","Horrible","-0.9077806689323738576","-256.5458646616541500407","95.5056179775280895683"
"122216","21:57:38","290","290","compatibletest","5","targetAleft","20","18","1","518","4","bm14_nc.jpg","-0.8376505863205740976","-234.6642857142857110375","95.5555555555555571345"
"122216","21:57:38","290","290","compatibletest","5","attributeB","21","23","0","1040","8","Hurt","-0.855672103283997898","-239.7238095238095638706","94.5054945054944965932"
"122216","21:57:38","290","290","compatibletest","5","attributeB","22","23","1","524","3","Awful","-0.7939270330364793793","-220.8688311688312069236","94.5652173913043441189"
"122216","21:57:38","290","290","compatibletest","5","attributeA","23","18","0","1552","5","Glorious","-0.8563894116529150446","-248.3490683229813384969","93.5483870967741921731"
"122216","21:57:38","290","290","compatibletest","5","targetAleft","24","18","1","1172","5","bm23_nc.jpg","-0.8835340329499059564","-257.7059523809523398086","93.6170212765957501233"
"122216","21:57:38","290","290","compatibletest","5","targetAleft","25","18","1","652","3","bf56_nc.jpg","-0.8483919466895326611","-245.5142857142857337749","93.6842105263157947093"
"122216","21:57:38","290","290","compatibletest","5","attributeB","26","23","1","973","2","Agony","-0.8551274121768399628","-246.6065934065934470709","93.75"
"122216","21:57:38","290","290","compatibletest","5","attributeA","27","18","1","710","4","Love","-0.830970343256394739","-237.8772486772486445261","93.8144329896907152033"
"122216","21:57:38","290","290","compatibletest","5","attributeB","28","23","1","732","5","Terrible","-0.8110977922300599552","-230.5571428571428214127","93.8775510204081626853"
"122216","21:57:38","290","290","compatibletest","5","attributeB","29","23","1","709","7","Failure","-0.7896298404604623622","-222.9487684729064085332","93.9393939393939376714"
"122216","21:57:38","290","290","compatibletest","5","attributeB","30","23","1","655","3","Awful","-0.7627381487775295454","-214.0476190476190367917","94"
"122216","21:57:38","290","290","compatibletest","5","attributeB","31","23","1","617","6","Horrible","-0.7325868758438681683","-204.4949308755760739587","94.0594059405940470242"
"122216","21:57:38","290","290","compatibletest","5","attributeA","32","18","1","714","3","Laughter","-0.7156288005797473151","-198.5705357142857110375","94.1176470588235218884"
"122216","21:57:38","290","290","compatibletest","5","attributeB","33","23","1","586","7","Failure","-0.6845295020382745621","-189.1264069264069576093","94.1747572815533970925"
"122216","21:57:38","290","290","compatibletest","5","attributeA","34","18","1","627","1","Joy","-0.6598853163098407082","-181.4436974789915666406","94.2307692307692263967"
"122216","21:57:38","290","290","compatibletest","5","targetAleft","35","18","1","1504","6","bm56_nc.jpg","-0.7031671507149399591","-199.2571428571428668874","94.2857142857142775938"
"122216","21:57:38","290","290","compatibletest","5","attributeB","36","23","1","897","2","Agony","-0.7060045315400074184","-199.2198412698412539612","94.3396226415094361073"
"122216","21:57:38","290","290","compatibletest","5","attributeA","37","18","1","732","5","Glorious","-0.6937913262938811831","-194.7250965250965464293","94.392523364485981574"
"122216","21:57:38","290","290","compatibletest","5","attributeA","38","18","1","858","8","Wonderful","-0.6936477754005643259","-193.7827067669172720343","94.4444444444444428655"
"122216","21:57:38","290","290","compatibletest","5","attributeB","39","23","1","582","8","Hurt","-0.6673738262030808333","-185.8117216117216230487","94.4954128440366929453"
"122216","21:57:38","290","290","compatibletest","5","attributeA","40","18","1","619","7","Peace","-0.6460523935871306245","-179.1642857142857110375","94.5454545454545467464"
"122216","21:57:38","290","290","compatibletest","5","attributeA","41","18","1","735","6","Pleasure","-0.6365942391065014805","-175.6703832752613152479","94.594594594594596515"
"122216","21:57:38","290","290","compatibletest","5","attributeB","42","23","1","540","4","Nasty","-0.6089975722832865479","-167.7000000000000454747","94.6428571428571387969"
"122216","21:57:38","290","290","compatibletest","5","targetAleft","43","18","1","1042","2","bf23_nc.jpg","-0.6237851591441547772","-171.7747508305648125315","94.6902654867256643456"
"122216","21:57:38","290","290","compatibletest","5","targetAleft","44","18","1","530","4","bm14_nc.jpg","-0.5966654534538632371","-164.027922077922085009","94.7368421052631504153"
"122216","21:57:38","290","290","compatibletest","5","targetAleft","45","18","1","475","1","bf14_nc.jpg","-0.5653174589774294656","-155.4031746031746479275","94.7826086956521720595"
"122216","21:57:38","290","290","compatibletest","5","attributeA","46","18","1","606","2","Happy","-0.5474639949005591921","-150.0012422360248365294","94.8275862068965551543"
"122216","21:57:38","290","290","compatibletest","5","attributeA","47","18","1","696","7","Peace","-0.5378907096123294318","-146.7440729483282666479","94.8717948717948615922"
"122216","21:57:38","290","290","compatibletest","5","targetAleft","48","18","1","697","3","bf56_nc.jpg","-0.5287743646556329891","-143.6434523809523398086","94.9152542372881384836"
"122216","21:57:38","290","290","compatibletest","5","targetAleft","49","18","1","606","5","bm23_nc.jpg","-0.5125917108645051679","-138.8122448979592036267","94.9579831932773004155"
"122216","21:57:38","290","290","compatibletest","5","attributeB","50","23","0","1271","5","Terrible","-0.5387538532151304738","-147.4742857142856564678","94.1666666666666714036"
"122216","21:57:38","290","290","compatibletest","5","attributeB","51","23","1","539","1","Evil","-0.5175714544225527014","-141.4436974789915666406","94.2148760330578483035"
"122216","21:57:38","290","290","compatibletest","5","targetAleft","52","18","1","593","2","bf23_nc.jpg","-0.5015415670710342555","-136.6835164835164277974","94.2622950819672240641"
"122216","21:57:38","290","290","compatibletest","5","attributeB","53","23","1","1585","3","Awful","-0.5357829520910348808","-150.819946091644169428","94.3089430894308975439"
"122216","21:57:38","290","290","compatibletest","5","attributeA","54","18","1","694","6","Pleasure","-0.527599356578706491","-147.9328042328041874498","94.3548387096774234806"
"122216","21:57:38","290","290","compatibletest","5","attributeA","55","18","1","616","1","Joy","-0.5141780807433397049","-143.7324675324675808952","94.3999999999999914735"
"122216","21:57:38","290","290","compatibletest","5","attributeA","56","18","1","490","3","Laughter","-0.491803902894529632","-137.4321428571428214127","94.4444444444444428655"
"122216","21:57:38","290","290","compatibletest","5","attributeB","57","23","1","568","1","Evil","-0.4759857669830769855","-132.7213032581453262537","94.4881889763779554414"
"122216","21:57:38","290","290","compatibletest","5","attributeB","58","23","1","524","7","Failure","-0.4575188062747467255","-127.4142857142857110375","94.53125"
