"participant","block","trial_n","rt","accuracy","IAT_condition","block_order","task_order","gender","age","modern_racism_scale_total","IAT_exclude_based_on_fast_trials","SCIAT_exclude_based_on_fast_trials"
10,"incompatible",1,736,1,"Race IAT","incongruent","ratings first","male",18,24,FALSE,FALSE
10,"incompatible",2,720,1,"Race IAT","incongruent","ratings first","male",18,24,FALSE,FALSE
10,"incompatible",3,642,1,"Race IAT","incongruent","ratings first","male",18,24,FALSE,FALSE
10,"incompatible",4,535,1,"Race IAT","incongruent","ratings first","male",18,24,FALSE,FALSE
10,"incompatible",5,1327,0,"Race IAT","incongruent","ratings first","male",18,24,FALSE,FALSE
10,"incompatible",6,615,1,"Race IAT","incongruent","ratings first","male",18,24,FALSE,FALSE
10,"incompatible",7,598,1,"Race IAT","incongruent","ratings first","male",18,24,FALSE,FALSE
10,"incompatible",8,580,1,"Race IAT","incongruent","ratings first","male",18,24,FALSE,FALSE
10,"incompatible",9,667,1,"Race IAT","incongruent","ratings first","male",18,24,FALSE,FALSE
10,"incompatible",10,551,1,"Race IAT","incongruent","ratings first","male",18,24,FALSE,FALSE
10,"incompatible",11,534,1,"Race IAT","incongruent","ratings first","male",18,24,FALSE,FALSE
10,"incompatible",12,591,1,"Race IAT","incongruent","ratings first","male",18,24,FALSE,FALSE
10,"incompatible",13,718,1,"Race IAT","incongruent","ratings first","male",18,24,FALSE,FALSE
10,"incompatible",14,895,0,"Race IAT","incongruent","ratings first","male",18,24,FALSE,FALSE
10,"incompatible",15,1161,0,"Race IAT","incongruent","ratings first","male",18,24,FALSE,FALSE
10,"incompatible",16,1152,1,"Race IAT","incongruent","ratings first","male",18,24,FALSE,FALSE
10,"incompatible",17,624,1,"Race IAT","incongruent","ratings first","male",18,24,FALSE,FALSE
10,"incompatible",18,949,1,"Race IAT","incongruent","ratings first","male",18,24,FALSE,FALSE
10,"incompatible",19,645,1,"Race IAT","incongruent","ratings first","male",18,24,FALSE,FALSE
10,"incompatible",20,674,1,"Race IAT","incongruent","ratings first","male",18,24,FALSE,FALSE
10,"incompatible",21,741,1,"Race IAT","incongruent","ratings first","male",18,24,FALSE,FALSE
10,"incompatible",22,702,1,"Race IAT","incongruent","ratings first","male",18,24,FALSE,FALSE
10,"incompatible",23,1120,1,"Race IAT","incongruent","ratings first","male",18,24,FALSE,FALSE
10,"incompatible",24,937,1,"Race IAT","incongruent","ratings first","male",18,24,FALSE,FALSE
10,"incompatible",25,618,1,"Race IAT","incongruent","ratings first","male",18,24,FALSE,FALSE
10,"incompatible",26,822,1,"Race IAT","incongruent","ratings first","male",18,24,FALSE,FALSE
10,"incompatible",27,516,1,"Race IAT","incongruent","ratings first","male",18,24,FALSE,FALSE
10,"incompatible",28,661,1,"Race IAT","incongruent","ratings first","male",18,24,FALSE,FALSE
10,"incompatible",29,617,1,"Race IAT","incongruent","ratings first","male",18,24,FALSE,FALSE
10,"incompatible",30,903,1,"Race IAT","incongruent","ratings first","male",18,24,FALSE,FALSE
10,"incompatible",31,609,1,"Race IAT","incongruent","ratings first","male",18,24,FALSE,FALSE
10,"incompatible",32,606,1,"Race IAT","incongruent","ratings first","male",18,24,FALSE,FALSE
10,"incompatible",33,604,1,"Race IAT","incongruent","ratings first","male",18,24,FALSE,FALSE
10,"incompatible",34,554,1,"Race IAT","incongruent","ratings first","male",18,24,FALSE,FALSE
10,"incompatible",35,538,1,"Race IAT","incongruent","ratings first","male",18,24,FALSE,FALSE
10,"incompatible",36,531,1,"Race IAT","incongruent","ratings first","male",18,24,FALSE,FALSE
10,"incompatible",37,540,1,"Race IAT","incongruent","ratings first","male",18,24,FALSE,FALSE
10,"incompatible",38,461,1,"Race IAT","incongruent","ratings first","male",18,24,FALSE,FALSE
10,"incompatible",39,457,1,"Race IAT","incongruent","ratings first","male",18,24,FALSE,FALSE
10,"incompatible",40,613,1,"Race IAT","incongruent","ratings first","male",18,24,FALSE,FALSE
10,"incompatible",41,891,0,"Race IAT","incongruent","ratings first","male",18,24,FALSE,FALSE
10,"incompatible",42,460,1,"Race IAT","incongruent","ratings first","male",18,24,FALSE,FALSE
10,"incompatible",43,384,1,"Race IAT","incongruent","ratings first","male",18,24,FALSE,FALSE
10,"incompatible",44,1231,0,"Race IAT","incongruent","ratings first","male",18,24,FALSE,FALSE
10,"incompatible",45,612,1,"Race IAT","incongruent","ratings first","male",18,24,FALSE,FALSE
10,"incompatible",46,858,1,"Race IAT","incongruent","ratings first","male",18,24,FALSE,FALSE
10,"incompatible",47,621,1,"Race IAT","incongruent","ratings first","male",18,24,FALSE,FALSE
10,"incompatible",48,651,1,"Race IAT","incongruent","ratings first","male",18,24,FALSE,FALSE
10,"incompatible",49,526,1,"Race IAT","incongruent","ratings first","male",18,24,FALSE,FALSE
10,"incompatible",50,552,1,"Race IAT","incongruent","ratings first","male",18,24,FALSE,FALSE
10,"incompatible",51,536,1,"Race IAT","incongruent","ratings first","male",18,24,FALSE,FALSE
10,"incompatible",52,544,1,"Race IAT","incongruent","ratings first","male",18,24,FALSE,FALSE
10,"incompatible",53,577,1,"Race IAT","incongruent","ratings first","male",18,24,FALSE,FALSE
10,"incompatible",54,688,1,"Race IAT","incongruent","ratings first","male",18,24,FALSE,FALSE
10,"incompatible",55,867,1,"Race IAT","incongruent","ratings first","male",18,24,FALSE,FALSE
10,"incompatible",56,558,1,"Race IAT","incongruent","ratings first","male",18,24,FALSE,FALSE
10,"incompatible",57,566,1,"Race IAT","incongruent","ratings first","male",18,24,FALSE,FALSE
10,"incompatible",58,533,1,"Race IAT","incongruent","ratings first","male",18,24,FALSE,FALSE
10,"incompatible",59,886,0,"Race IAT","incongruent","ratings first","male",18,24,FALSE,FALSE
10,"incompatible",60,928,1,"Race IAT","incongruent","ratings first","male",18,24,FALSE,FALSE
10,"incompatible",61,657,1,"Race IAT","incongruent","ratings first","male",18,24,FALSE,FALSE
10,"incompatible",62,685,1,"Race IAT","incongruent","ratings first","male",18,24,FALSE,FALSE
10,"incompatible",63,608,1,"Race IAT","incongruent","ratings first","male",18,24,FALSE,FALSE
10,"incompatible",64,614,1,"Race IAT","incongruent","ratings first","male",18,24,FALSE,FALSE
10,"incompatible",65,460,1,"Race IAT","incongruent","ratings first","male",18,24,FALSE,FALSE
10,"incompatible",66,583,1,"Race IAT","incongruent","ratings first","male",18,24,FALSE,FALSE
10,"incompatible",67,846,0,"Race IAT","incongruent","ratings first","male",18,24,FALSE,FALSE
10,"incompatible",68,538,1,"Race IAT","incongruent","ratings first","male",18,24,FALSE,FALSE
10,"incompatible",69,931,0,"Race IAT","incongruent","ratings first","male",18,24,FALSE,FALSE
10,"incompatible",70,547,1,"Race IAT","incongruent","ratings first","male",18,24,FALSE,FALSE
10,"compatible",1,1225,1,"Race IAT","incongruent","ratings first","male",18,24,FALSE,FALSE
10,"compatible",2,742,1,"Race IAT","incongruent","ratings first","male",18,24,FALSE,FALSE
10,"compatible",3,678,1,"Race IAT","incongruent","ratings first","male",18,24,FALSE,FALSE
10,"compatible",4,706,1,"Race IAT","incongruent","ratings first","male",18,24,FALSE,FALSE
10,"compatible",5,692,1,"Race IAT","incongruent","ratings first","male",18,24,FALSE,FALSE
10,"compatible",6,1014,1,"Race IAT","incongruent","ratings first","male",18,24,FALSE,FALSE
10,"compatible",7,692,1,"Race IAT","incongruent","ratings first","male",18,24,FALSE,FALSE
10,"compatible",8,1655,1,"Race IAT","incongruent","ratings first","male",18,24,FALSE,FALSE
10,"compatible",9,667,1,"Race IAT","incongruent","ratings first","male",18,24,FALSE,FALSE
10,"compatible",10,966,1,"Race IAT","incongruent","ratings first","male",18,24,FALSE,FALSE
10,"compatible",11,1278,1,"Race IAT","incongruent","ratings first","male",18,24,FALSE,FALSE
10,"compatible",12,881,1,"Race IAT","incongruent","ratings first","male",18,24,FALSE,FALSE
10,"compatible",13,1140,1,"Race IAT","incongruent","ratings first","male",18,24,FALSE,FALSE
10,"compatible",14,573,1,"Race IAT","incongruent","ratings first","male",18,24,FALSE,FALSE
10,"compatible",15,1148,1,"Race IAT","incongruent","ratings first","male",18,24,FALSE,FALSE
10,"compatible",16,532,1,"Race IAT","incongruent","ratings first","male",18,24,FALSE,FALSE
10,"compatible",17,573,1,"Race IAT","incongruent","ratings first","male",18,24,FALSE,FALSE
10,"compatible",18,748,1,"Race IAT","incongruent","ratings first","male",18,24,FALSE,FALSE
10,"compatible",19,549,1,"Race IAT","incongruent","ratings first","male",18,24,FALSE,FALSE
10,"compatible",20,1381,0,"Race IAT","incongruent","ratings first","male",18,24,FALSE,FALSE
10,"compatible",21,892,1,"Race IAT","incongruent","ratings first","male",18,24,FALSE,FALSE
10,"compatible",22,478,1,"Race IAT","incongruent","ratings first","male",18,24,FALSE,FALSE
10,"compatible",23,1009,1,"Race IAT","incongruent","ratings first","male",18,24,FALSE,FALSE
10,"compatible",24,615,1,"Race IAT","incongruent","ratings first","male",18,24,FALSE,FALSE
10,"compatible",25,685,1,"Race IAT","incongruent","ratings first","male",18,24,FALSE,FALSE
10,"compatible",26,959,1,"Race IAT","incongruent","ratings first","male",18,24,FALSE,FALSE
10,"compatible",27,552,1,"Race IAT","incongruent","ratings first","male",18,24,FALSE,FALSE
10,"compatible",28,575,1,"Race IAT","incongruent","ratings first","male",18,24,FALSE,FALSE
10,"compatible",29,655,1,"Race IAT","incongruent","ratings first","male",18,24,FALSE,FALSE
10,"compatible",30,499,1,"Race IAT","incongruent","ratings first","male",18,24,FALSE,FALSE
10,"compatible",31,349,1,"Race IAT","incongruent","ratings first","male",18,24,FALSE,FALSE
10,"compatible",32,1101,1,"Race IAT","incongruent","ratings first","male",18,24,FALSE,FALSE
10,"compatible",33,1487,1,"Race IAT","incongruent","ratings first","male",18,24,FALSE,FALSE
10,"compatible",34,1673,1,"Race IAT","incongruent","ratings first","male",18,24,FALSE,FALSE
10,"compatible",35,589,1,"Race IAT","incongruent","ratings first","male",18,24,FALSE,FALSE
10,"compatible",36,499,1,"Race IAT","incongruent","ratings first","male",18,24,FALSE,FALSE
10,"compatible",37,1270,1,"Race IAT","incongruent","ratings first","male",18,24,FALSE,FALSE
10,"compatible",38,721,1,"Race IAT","incongruent","ratings first","male",18,24,FALSE,FALSE
10,"compatible",39,682,1,"Race IAT","incongruent","ratings first","male",18,24,FALSE,FALSE
10,"compatible",40,1165,1,"Race IAT","incongruent","ratings first","male",18,24,FALSE,FALSE
10,"compatible",41,3165,1,"Race IAT","incongruent","ratings first","male",18,24,FALSE,FALSE
10,"compatible",42,965,1,"Race IAT","incongruent","ratings first","male",18,24,FALSE,FALSE
10,"compatible",43,557,1,"Race IAT","incongruent","ratings first","male",18,24,FALSE,FALSE
10,"compatible",44,381,1,"Race IAT","incongruent","ratings first","male",18,24,FALSE,FALSE
10,"compatible",45,300,1,"Race IAT","incongruent","ratings first","male",18,24,FALSE,FALSE
10,"compatible",46,310,1,"Race IAT","incongruent","ratings first","male",18,24,FALSE,FALSE
10,"compatible",47,600,1,"Race IAT","incongruent","ratings first","male",18,24,FALSE,FALSE
10,"compatible",48,526,1,"Race IAT","incongruent","ratings first","male",18,24,FALSE,FALSE
10,"compatible",49,951,1,"Race IAT","incongruent","ratings first","male",18,24,FALSE,FALSE
10,"compatible",50,1647,1,"Race IAT","incongruent","ratings first","male",18,24,FALSE,FALSE
10,"compatible",51,1235,1,"Race IAT","incongruent","ratings first","male",18,24,FALSE,FALSE
10,"compatible",52,888,1,"Race IAT","incongruent","ratings first","male",18,24,FALSE,FALSE
10,"compatible",53,603,1,"Race IAT","incongruent","ratings first","male",18,24,FALSE,FALSE
10,"compatible",54,801,1,"Race IAT","incongruent","ratings first","male",18,24,FALSE,FALSE
10,"compatible",55,1927,0,"Race IAT","incongruent","ratings first","male",18,24,FALSE,FALSE
10,"compatible",56,1175,0,"Race IAT","incongruent","ratings first","male",18,24,FALSE,FALSE
10,"compatible",57,589,1,"Race IAT","incongruent","ratings first","male",18,24,FALSE,FALSE
10,"compatible",58,476,1,"Race IAT","incongruent","ratings first","male",18,24,FALSE,FALSE
10,"compatible",59,536,1,"Race IAT","incongruent","ratings first","male",18,24,FALSE,FALSE
10,"compatible",60,912,0,"Race IAT","incongruent","ratings first","male",18,24,FALSE,FALSE
10,"compatible",61,626,1,"Race IAT","incongruent","ratings first","male",18,24,FALSE,FALSE
10,"compatible",62,1423,1,"Race IAT","incongruent","ratings first","male",18,24,FALSE,FALSE
10,"compatible",63,540,1,"Race IAT","incongruent","ratings first","male",18,24,FALSE,FALSE
10,"compatible",64,597,1,"Race IAT","incongruent","ratings first","male",18,24,FALSE,FALSE
10,"compatible",65,643,1,"Race IAT","incongruent","ratings first","male",18,24,FALSE,FALSE
10,"compatible",66,552,1,"Race IAT","incongruent","ratings first","male",18,24,FALSE,FALSE
10,"compatible",67,552,1,"Race IAT","incongruent","ratings first","male",18,24,FALSE,FALSE
10,"compatible",68,664,1,"Race IAT","incongruent","ratings first","male",18,24,FALSE,FALSE
10,"compatible",69,556,1,"Race IAT","incongruent","ratings first","male",18,24,FALSE,FALSE
10,"compatible",70,1100,1,"Race IAT","incongruent","ratings first","male",18,24,FALSE,FALSE
104,"incompatible",1,1861,1,"Flowers-Insects IAT","incongruent","SCIAT first","male",37,16,FALSE,FALSE
104,"incompatible",2,916,1,"Flowers-Insects IAT","incongruent","SCIAT first","male",37,16,FALSE,FALSE
104,"incompatible",3,660,1,"Flowers-Insects IAT","incongruent","SCIAT first","male",37,16,FALSE,FALSE
104,"incompatible",4,656,1,"Flowers-Insects IAT","incongruent","SCIAT first","male",37,16,FALSE,FALSE
104,"incompatible",5,667,1,"Flowers-Insects IAT","incongruent","SCIAT first","male",37,16,FALSE,FALSE
104,"incompatible",6,673,1,"Flowers-Insects IAT","incongruent","SCIAT first","male",37,16,FALSE,FALSE
104,"incompatible",7,580,1,"Flowers-Insects IAT","incongruent","SCIAT first","male",37,16,FALSE,FALSE
104,"incompatible",8,588,1,"Flowers-Insects IAT","incongruent","SCIAT first","male",37,16,FALSE,FALSE
104,"incompatible",9,632,1,"Flowers-Insects IAT","incongruent","SCIAT first","male",37,16,FALSE,FALSE
104,"incompatible",10,765,1,"Flowers-Insects IAT","incongruent","SCIAT first","male",37,16,FALSE,FALSE
104,"incompatible",11,499,1,"Flowers-Insects IAT","incongruent","SCIAT first","male",37,16,FALSE,FALSE
104,"incompatible",12,501,1,"Flowers-Insects IAT","incongruent","SCIAT first","male",37,16,FALSE,FALSE
104,"incompatible",13,464,1,"Flowers-Insects IAT","incongruent","SCIAT first","male",37,16,FALSE,FALSE
104,"incompatible",14,614,1,"Flowers-Insects IAT","incongruent","SCIAT first","male",37,16,FALSE,FALSE
104,"incompatible",15,717,1,"Flowers-Insects IAT","incongruent","SCIAT first","male",37,16,FALSE,FALSE
104,"incompatible",16,713,1,"Flowers-Insects IAT","incongruent","SCIAT first","male",37,16,FALSE,FALSE
104,"incompatible",17,729,1,"Flowers-Insects IAT","incongruent","SCIAT first","male",37,16,FALSE,FALSE
104,"incompatible",18,530,1,"Flowers-Insects IAT","incongruent","SCIAT first","male",37,16,FALSE,FALSE
104,"incompatible",19,639,1,"Flowers-Insects IAT","incongruent","SCIAT first","male",37,16,FALSE,FALSE
104,"incompatible",20,546,1,"Flowers-Insects IAT","incongruent","SCIAT first","male",37,16,FALSE,FALSE
104,"incompatible",21,640,1,"Flowers-Insects IAT","incongruent","SCIAT first","male",37,16,FALSE,FALSE
104,"incompatible",22,587,1,"Flowers-Insects IAT","incongruent","SCIAT first","male",37,16,FALSE,FALSE
104,"incompatible",23,558,1,"Flowers-Insects IAT","incongruent","SCIAT first","male",37,16,FALSE,FALSE
104,"incompatible",24,642,1,"Flowers-Insects IAT","incongruent","SCIAT first","male",37,16,FALSE,FALSE
104,"incompatible",25,550,1,"Flowers-Insects IAT","incongruent","SCIAT first","male",37,16,FALSE,FALSE
104,"incompatible",26,657,1,"Flowers-Insects IAT","incongruent","SCIAT first","male",37,16,FALSE,FALSE
104,"incompatible",27,503,1,"Flowers-Insects IAT","incongruent","SCIAT first","male",37,16,FALSE,FALSE
104,"incompatible",28,570,1,"Flowers-Insects IAT","incongruent","SCIAT first","male",37,16,FALSE,FALSE
104,"incompatible",29,636,1,"Flowers-Insects IAT","incongruent","SCIAT first","male",37,16,FALSE,FALSE
104,"incompatible",30,614,1,"Flowers-Insects IAT","incongruent","SCIAT first","male",37,16,FALSE,FALSE
104,"incompatible",31,590,1,"Flowers-Insects IAT","incongruent","SCIAT first","male",37,16,FALSE,FALSE
104,"incompatible",32,435,1,"Flowers-Insects IAT","incongruent","SCIAT first","male",37,16,FALSE,FALSE
104,"incompatible",33,613,1,"Flowers-Insects IAT","incongruent","SCIAT first","male",37,16,FALSE,FALSE
104,"incompatible",34,516,1,"Flowers-Insects IAT","incongruent","SCIAT first","male",37,16,FALSE,FALSE
104,"incompatible",35,451,1,"Flowers-Insects IAT","incongruent","SCIAT first","male",37,16,FALSE,FALSE
104,"incompatible",36,429,1,"Flowers-Insects IAT","incongruent","SCIAT first","male",37,16,FALSE,FALSE
104,"incompatible",37,498,1,"Flowers-Insects IAT","incongruent","SCIAT first","male",37,16,FALSE,FALSE
104,"incompatible",38,432,1,"Flowers-Insects IAT","incongruent","SCIAT first","male",37,16,FALSE,FALSE
104,"incompatible",39,719,1,"Flowers-Insects IAT","incongruent","SCIAT first","male",37,16,FALSE,FALSE
104,"incompatible",40,675,1,"Flowers-Insects IAT","incongruent","SCIAT first","male",37,16,FALSE,FALSE
104,"incompatible",41,572,1,"Flowers-Insects IAT","incongruent","SCIAT first","male",37,16,FALSE,FALSE
104,"incompatible",42,494,1,"Flowers-Insects IAT","incongruent","SCIAT first","male",37,16,FALSE,FALSE
104,"incompatible",43,448,1,"Flowers-Insects IAT","incongruent","SCIAT first","male",37,16,FALSE,FALSE
104,"incompatible",44,551,1,"Flowers-Insects IAT","incongruent","SCIAT first","male",37,16,FALSE,FALSE
104,"incompatible",45,468,1,"Flowers-Insects IAT","incongruent","SCIAT first","male",37,16,FALSE,FALSE
104,"incompatible",46,517,1,"Flowers-Insects IAT","incongruent","SCIAT first","male",37,16,FALSE,FALSE
104,"incompatible",47,551,1,"Flowers-Insects IAT","incongruent","SCIAT first","male",37,16,FALSE,FALSE
104,"incompatible",48,472,1,"Flowers-Insects IAT","incongruent","SCIAT first","male",37,16,FALSE,FALSE
104,"incompatible",49,590,1,"Flowers-Insects IAT","incongruent","SCIAT first","male",37,16,FALSE,FALSE
104,"incompatible",50,908,0,"Flowers-Insects IAT","incongruent","SCIAT first","male",37,16,FALSE,FALSE
104,"incompatible",51,928,0,"Flowers-Insects IAT","incongruent","SCIAT first","male",37,16,FALSE,FALSE
104,"incompatible",52,830,1,"Flowers-Insects IAT","incongruent","SCIAT first","male",37,16,FALSE,FALSE
104,"incompatible",53,664,1,"Flowers-Insects IAT","incongruent","SCIAT first","male",37,16,FALSE,FALSE
104,"incompatible",54,550,1,"Flowers-Insects IAT","incongruent","SCIAT first","male",37,16,FALSE,FALSE
104,"incompatible",55,474,1,"Flowers-Insects IAT","incongruent","SCIAT first","male",37,16,FALSE,FALSE
104,"incompatible",56,597,1,"Flowers-Insects IAT","incongruent","SCIAT first","male",37,16,FALSE,FALSE
104,"incompatible",57,624,1,"Flowers-Insects IAT","incongruent","SCIAT first","male",37,16,FALSE,FALSE
104,"incompatible",58,419,1,"Flowers-Insects IAT","incongruent","SCIAT first","male",37,16,FALSE,FALSE
104,"incompatible",59,902,0,"Flowers-Insects IAT","incongruent","SCIAT first","male",37,16,FALSE,FALSE
104,"incompatible",60,553,1,"Flowers-Insects IAT","incongruent","SCIAT first","male",37,16,FALSE,FALSE
104,"incompatible",61,460,1,"Flowers-Insects IAT","incongruent","SCIAT first","male",37,16,FALSE,FALSE
104,"incompatible",62,568,1,"Flowers-Insects IAT","incongruent","SCIAT first","male",37,16,FALSE,FALSE
104,"incompatible",63,454,1,"Flowers-Insects IAT","incongruent","SCIAT first","male",37,16,FALSE,FALSE
104,"incompatible",64,606,1,"Flowers-Insects IAT","incongruent","SCIAT first","male",37,16,FALSE,FALSE
104,"incompatible",65,661,1,"Flowers-Insects IAT","incongruent","SCIAT first","male",37,16,FALSE,FALSE
104,"incompatible",66,693,1,"Flowers-Insects IAT","incongruent","SCIAT first","male",37,16,FALSE,FALSE
104,"incompatible",67,528,1,"Flowers-Insects IAT","incongruent","SCIAT first","male",37,16,FALSE,FALSE
104,"incompatible",68,626,1,"Flowers-Insects IAT","incongruent","SCIAT first","male",37,16,FALSE,FALSE
104,"incompatible",69,523,1,"Flowers-Insects IAT","incongruent","SCIAT first","male",37,16,FALSE,FALSE
104,"incompatible",70,655,1,"Flowers-Insects IAT","incongruent","SCIAT first","male",37,16,FALSE,FALSE
104,"compatible",1,3074,1,"Flowers-Insects IAT","incongruent","SCIAT first","male",37,16,FALSE,FALSE
104,"compatible",2,1894,1,"Flowers-Insects IAT","incongruent","SCIAT first","male",37,16,FALSE,FALSE
104,"compatible",3,1763,1,"Flowers-Insects IAT","incongruent","SCIAT first","male",37,16,FALSE,FALSE
104,"compatible",4,698,1,"Flowers-Insects IAT","incongruent","SCIAT first","male",37,16,FALSE,FALSE
104,"compatible",5,662,1,"Flowers-Insects IAT","incongruent","SCIAT first","male",37,16,FALSE,FALSE
104,"compatible",6,524,1,"Flowers-Insects IAT","incongruent","SCIAT first","male",37,16,FALSE,FALSE
104,"compatible",7,523,1,"Flowers-Insects IAT","incongruent","SCIAT first","male",37,16,FALSE,FALSE
104,"compatible",8,1246,0,"Flowers-Insects IAT","incongruent","SCIAT first","male",37,16,FALSE,FALSE
104,"compatible",9,880,1,"Flowers-Insects IAT","incongruent","SCIAT first","male",37,16,FALSE,FALSE
104,"compatible",10,1228,1,"Flowers-Insects IAT","incongruent","SCIAT first","male",37,16,FALSE,FALSE
104,"compatible",11,813,1,"Flowers-Insects IAT","incongruent","SCIAT first","male",37,16,FALSE,FALSE
104,"compatible",12,694,1,"Flowers-Insects IAT","incongruent","SCIAT first","male",37,16,FALSE,FALSE
104,"compatible",13,687,1,"Flowers-Insects IAT","incongruent","SCIAT first","male",37,16,FALSE,FALSE
104,"compatible",14,583,1,"Flowers-Insects IAT","incongruent","SCIAT first","male",37,16,FALSE,FALSE
104,"compatible",15,549,1,"Flowers-Insects IAT","incongruent","SCIAT first","male",37,16,FALSE,FALSE
104,"compatible",16,497,1,"Flowers-Insects IAT","incongruent","SCIAT first","male",37,16,FALSE,FALSE
104,"compatible",17,529,1,"Flowers-Insects IAT","incongruent","SCIAT first","male",37,16,FALSE,FALSE
104,"compatible",18,658,1,"Flowers-Insects IAT","incongruent","SCIAT first","male",37,16,FALSE,FALSE
104,"compatible",19,541,1,"Flowers-Insects IAT","incongruent","SCIAT first","male",37,16,FALSE,FALSE
104,"compatible",20,614,1,"Flowers-Insects IAT","incongruent","SCIAT first","male",37,16,FALSE,FALSE
104,"compatible",21,638,1,"Flowers-Insects IAT","incongruent","SCIAT first","male",37,16,FALSE,FALSE
104,"compatible",22,705,1,"Flowers-Insects IAT","incongruent","SCIAT first","male",37,16,FALSE,FALSE
104,"compatible",23,443,1,"Flowers-Insects IAT","incongruent","SCIAT first","male",37,16,FALSE,FALSE
104,"compatible",24,754,1,"Flowers-Insects IAT","incongruent","SCIAT first","male",37,16,FALSE,FALSE
104,"compatible",25,674,1,"Flowers-Insects IAT","incongruent","SCIAT first","male",37,16,FALSE,FALSE
104,"compatible",26,804,1,"Flowers-Insects IAT","incongruent","SCIAT first","male",37,16,FALSE,FALSE
104,"compatible",27,439,1,"Flowers-Insects IAT","incongruent","SCIAT first","male",37,16,FALSE,FALSE
104,"compatible",28,520,1,"Flowers-Insects IAT","incongruent","SCIAT first","male",37,16,FALSE,FALSE
104,"compatible",29,591,1,"Flowers-Insects IAT","incongruent","SCIAT first","male",37,16,FALSE,FALSE
104,"compatible",30,629,1,"Flowers-Insects IAT","incongruent","SCIAT first","male",37,16,FALSE,FALSE
104,"compatible",31,460,1,"Flowers-Insects IAT","incongruent","SCIAT first","male",37,16,FALSE,FALSE
104,"compatible",32,789,1,"Flowers-Insects IAT","incongruent","SCIAT first","male",37,16,FALSE,FALSE
104,"compatible",33,726,1,"Flowers-Insects IAT","incongruent","SCIAT first","male",37,16,FALSE,FALSE
104,"compatible",34,905,0,"Flowers-Insects IAT","incongruent","SCIAT first","male",37,16,FALSE,FALSE
104,"compatible",35,559,1,"Flowers-Insects IAT","incongruent","SCIAT first","male",37,16,FALSE,FALSE
104,"compatible",36,626,1,"Flowers-Insects IAT","incongruent","SCIAT first","male",37,16,FALSE,FALSE
104,"compatible",37,490,1,"Flowers-Insects IAT","incongruent","SCIAT first","male",37,16,FALSE,FALSE
104,"compatible",38,730,1,"Flowers-Insects IAT","incongruent","SCIAT first","male",37,16,FALSE,FALSE
104,"compatible",39,713,1,"Flowers-Insects IAT","incongruent","SCIAT first","male",37,16,FALSE,FALSE
104,"compatible",40,977,0,"Flowers-Insects IAT","incongruent","SCIAT first","male",37,16,FALSE,FALSE
104,"compatible",41,1086,1,"Flowers-Insects IAT","incongruent","SCIAT first","male",37,16,FALSE,FALSE
104,"compatible",42,543,1,"Flowers-Insects IAT","incongruent","SCIAT first","male",37,16,FALSE,FALSE
104,"compatible",43,856,0,"Flowers-Insects IAT","incongruent","SCIAT first","male",37,16,FALSE,FALSE
104,"compatible",44,700,1,"Flowers-Insects IAT","incongruent","SCIAT first","male",37,16,FALSE,FALSE
104,"compatible",45,516,1,"Flowers-Insects IAT","incongruent","SCIAT first","male",37,16,FALSE,FALSE
104,"compatible",46,521,1,"Flowers-Insects IAT","incongruent","SCIAT first","male",37,16,FALSE,FALSE
104,"compatible",47,558,1,"Flowers-Insects IAT","incongruent","SCIAT first","male",37,16,FALSE,FALSE
104,"compatible",48,873,1,"Flowers-Insects IAT","incongruent","SCIAT first","male",37,16,FALSE,FALSE
104,"compatible",49,520,1,"Flowers-Insects IAT","incongruent","SCIAT first","male",37,16,FALSE,FALSE
104,"compatible",50,520,1,"Flowers-Insects IAT","incongruent","SCIAT first","male",37,16,FALSE,FALSE
104,"compatible",51,960,0,"Flowers-Insects IAT","incongruent","SCIAT first","male",37,16,FALSE,FALSE
104,"compatible",52,601,1,"Flowers-Insects IAT","incongruent","SCIAT first","male",37,16,FALSE,FALSE
104,"compatible",53,628,1,"Flowers-Insects IAT","incongruent","SCIAT first","male",37,16,FALSE,FALSE
104,"compatible",54,620,1,"Flowers-Insects IAT","incongruent","SCIAT first","male",37,16,FALSE,FALSE
104,"compatible",55,679,1,"Flowers-Insects IAT","incongruent","SCIAT first","male",37,16,FALSE,FALSE
104,"compatible",56,745,1,"Flowers-Insects IAT","incongruent","SCIAT first","male",37,16,FALSE,FALSE
104,"compatible",57,550,1,"Flowers-Insects IAT","incongruent","SCIAT first","male",37,16,FALSE,FALSE
104,"compatible",58,723,1,"Flowers-Insects IAT","incongruent","SCIAT first","male",37,16,FALSE,FALSE
104,"compatible",59,441,1,"Flowers-Insects IAT","incongruent","SCIAT first","male",37,16,FALSE,FALSE
104,"compatible",60,568,1,"Flowers-Insects IAT","incongruent","SCIAT first","male",37,16,FALSE,FALSE
104,"compatible",61,567,1,"Flowers-Insects IAT","incongruent","SCIAT first","male",37,16,FALSE,FALSE
104,"compatible",62,622,1,"Flowers-Insects IAT","incongruent","SCIAT first","male",37,16,FALSE,FALSE
104,"compatible",63,467,1,"Flowers-Insects IAT","incongruent","SCIAT first","male",37,16,FALSE,FALSE
104,"compatible",64,562,1,"Flowers-Insects IAT","incongruent","SCIAT first","male",37,16,FALSE,FALSE
104,"compatible",65,466,1,"Flowers-Insects IAT","incongruent","SCIAT first","male",37,16,FALSE,FALSE
104,"compatible",66,474,1,"Flowers-Insects IAT","incongruent","SCIAT first","male",37,16,FALSE,FALSE
104,"compatible",67,650,1,"Flowers-Insects IAT","incongruent","SCIAT first","male",37,16,FALSE,FALSE
104,"compatible",68,599,1,"Flowers-Insects IAT","incongruent","SCIAT first","male",37,16,FALSE,FALSE
104,"compatible",69,435,1,"Flowers-Insects IAT","incongruent","SCIAT first","male",37,16,FALSE,FALSE
104,"compatible",70,559,1,"Flowers-Insects IAT","incongruent","SCIAT first","male",37,16,FALSE,FALSE
106,"incompatible",1,942,1,"Race IAT","incongruent","ratings first","female",55,10,FALSE,FALSE
106,"incompatible",2,676,1,"Race IAT","incongruent","ratings first","female",55,10,FALSE,FALSE
106,"incompatible",3,526,1,"Race IAT","incongruent","ratings first","female",55,10,FALSE,FALSE
106,"incompatible",4,605,1,"Race IAT","incongruent","ratings first","female",55,10,FALSE,FALSE
106,"incompatible",5,723,1,"Race IAT","incongruent","ratings first","female",55,10,FALSE,FALSE
106,"incompatible",6,672,1,"Race IAT","incongruent","ratings first","female",55,10,FALSE,FALSE
106,"incompatible",7,1230,1,"Race IAT","incongruent","ratings first","female",55,10,FALSE,FALSE
106,"incompatible",8,774,1,"Race IAT","incongruent","ratings first","female",55,10,FALSE,FALSE
106,"incompatible",9,583,1,"Race IAT","incongruent","ratings first","female",55,10,FALSE,FALSE
106,"incompatible",10,569,1,"Race IAT","incongruent","ratings first","female",55,10,FALSE,FALSE
106,"incompatible",11,626,1,"Race IAT","incongruent","ratings first","female",55,10,FALSE,FALSE
106,"incompatible",12,682,1,"Race IAT","incongruent","ratings first","female",55,10,FALSE,FALSE
106,"incompatible",13,548,1,"Race IAT","incongruent","ratings first","female",55,10,FALSE,FALSE
106,"incompatible",14,585,1,"Race IAT","incongruent","ratings first","female",55,10,FALSE,FALSE
106,"incompatible",15,626,1,"Race IAT","incongruent","ratings first","female",55,10,FALSE,FALSE
106,"incompatible",16,743,1,"Race IAT","incongruent","ratings first","female",55,10,FALSE,FALSE
106,"incompatible",17,684,1,"Race IAT","incongruent","ratings first","female",55,10,FALSE,FALSE
106,"incompatible",18,776,1,"Race IAT","incongruent","ratings first","female",55,10,FALSE,FALSE
106,"incompatible",19,679,1,"Race IAT","incongruent","ratings first","female",55,10,FALSE,FALSE
106,"incompatible",20,758,1,"Race IAT","incongruent","ratings first","female",55,10,FALSE,FALSE
106,"incompatible",21,781,1,"Race IAT","incongruent","ratings first","female",55,10,FALSE,FALSE
106,"incompatible",22,690,1,"Race IAT","incongruent","ratings first","female",55,10,FALSE,FALSE
106,"incompatible",23,738,1,"Race IAT","incongruent","ratings first","female",55,10,FALSE,FALSE
106,"incompatible",24,642,1,"Race IAT","incongruent","ratings first","female",55,10,FALSE,FALSE
106,"incompatible",25,632,1,"Race IAT","incongruent","ratings first","female",55,10,FALSE,FALSE
106,"incompatible",26,620,1,"Race IAT","incongruent","ratings first","female",55,10,FALSE,FALSE
106,"incompatible",27,596,1,"Race IAT","incongruent","ratings first","female",55,10,FALSE,FALSE
106,"incompatible",28,1740,0,"Race IAT","incongruent","ratings first","female",55,10,FALSE,FALSE
106,"incompatible",29,817,1,"Race IAT","incongruent","ratings first","female",55,10,FALSE,FALSE
106,"incompatible",30,624,1,"Race IAT","incongruent","ratings first","female",55,10,FALSE,FALSE
106,"incompatible",31,643,1,"Race IAT","incongruent","ratings first","female",55,10,FALSE,FALSE
106,"incompatible",32,647,1,"Race IAT","incongruent","ratings first","female",55,10,FALSE,FALSE
106,"incompatible",33,801,1,"Race IAT","incongruent","ratings first","female",55,10,FALSE,FALSE
106,"incompatible",34,674,1,"Race IAT","incongruent","ratings first","female",55,10,FALSE,FALSE
106,"incompatible",35,564,1,"Race IAT","incongruent","ratings first","female",55,10,FALSE,FALSE
106,"incompatible",36,797,1,"Race IAT","incongruent","ratings first","female",55,10,FALSE,FALSE
106,"incompatible",37,833,1,"Race IAT","incongruent","ratings first","female",55,10,FALSE,FALSE
106,"incompatible",38,825,1,"Race IAT","incongruent","ratings first","female",55,10,FALSE,FALSE
106,"incompatible",39,644,1,"Race IAT","incongruent","ratings first","female",55,10,FALSE,FALSE
106,"incompatible",40,550,1,"Race IAT","incongruent","ratings first","female",55,10,FALSE,FALSE
106,"incompatible",41,814,1,"Race IAT","incongruent","ratings first","female",55,10,FALSE,FALSE
106,"incompatible",42,565,1,"Race IAT","incongruent","ratings first","female",55,10,FALSE,FALSE
106,"incompatible",43,708,1,"Race IAT","incongruent","ratings first","female",55,10,FALSE,FALSE
106,"incompatible",44,651,1,"Race IAT","incongruent","ratings first","female",55,10,FALSE,FALSE
106,"incompatible",45,840,1,"Race IAT","incongruent","ratings first","female",55,10,FALSE,FALSE
106,"incompatible",46,637,1,"Race IAT","incongruent","ratings first","female",55,10,FALSE,FALSE
106,"incompatible",47,602,1,"Race IAT","incongruent","ratings first","female",55,10,FALSE,FALSE
106,"incompatible",48,734,1,"Race IAT","incongruent","ratings first","female",55,10,FALSE,FALSE
106,"incompatible",49,674,1,"Race IAT","incongruent","ratings first","female",55,10,FALSE,FALSE
106,"incompatible",50,1395,1,"Race IAT","incongruent","ratings first","female",55,10,FALSE,FALSE
106,"incompatible",51,600,1,"Race IAT","incongruent","ratings first","female",55,10,FALSE,FALSE
106,"incompatible",52,665,1,"Race IAT","incongruent","ratings first","female",55,10,FALSE,FALSE
106,"incompatible",53,619,1,"Race IAT","incongruent","ratings first","female",55,10,FALSE,FALSE
106,"incompatible",54,703,1,"Race IAT","incongruent","ratings first","female",55,10,FALSE,FALSE
106,"incompatible",55,674,1,"Race IAT","incongruent","ratings first","female",55,10,FALSE,FALSE
106,"incompatible",56,881,1,"Race IAT","incongruent","ratings first","female",55,10,FALSE,FALSE
106,"incompatible",57,582,1,"Race IAT","incongruent","ratings first","female",55,10,FALSE,FALSE
106,"incompatible",58,545,1,"Race IAT","incongruent","ratings first","female",55,10,FALSE,FALSE
106,"incompatible",59,507,1,"Race IAT","incongruent","ratings first","female",55,10,FALSE,FALSE
106,"incompatible",60,782,1,"Race IAT","incongruent","ratings first","female",55,10,FALSE,FALSE
106,"incompatible",61,559,1,"Race IAT","incongruent","ratings first","female",55,10,FALSE,FALSE
106,"incompatible",62,588,1,"Race IAT","incongruent","ratings first","female",55,10,FALSE,FALSE
106,"incompatible",63,1244,0,"Race IAT","incongruent","ratings first","female",55,10,FALSE,FALSE
106,"incompatible",64,611,1,"Race IAT","incongruent","ratings first","female",55,10,FALSE,FALSE
106,"incompatible",65,584,1,"Race IAT","incongruent","ratings first","female",55,10,FALSE,FALSE
106,"incompatible",66,690,1,"Race IAT","incongruent","ratings first","female",55,10,FALSE,FALSE
106,"incompatible",67,570,1,"Race IAT","incongruent","ratings first","female",55,10,FALSE,FALSE
106,"incompatible",68,1022,1,"Race IAT","incongruent","ratings first","female",55,10,FALSE,FALSE
106,"incompatible",69,651,1,"Race IAT","incongruent","ratings first","female",55,10,FALSE,FALSE
106,"incompatible",70,454,1,"Race IAT","incongruent","ratings first","female",55,10,FALSE,FALSE
106,"compatible",1,1350,1,"Race IAT","incongruent","ratings first","female",55,10,FALSE,FALSE
106,"compatible",2,696,1,"Race IAT","incongruent","ratings first","female",55,10,FALSE,FALSE
106,"compatible",3,1432,1,"Race IAT","incongruent","ratings first","female",55,10,FALSE,FALSE
106,"compatible",4,1258,1,"Race IAT","incongruent","ratings first","female",55,10,FALSE,FALSE
106,"compatible",5,588,1,"Race IAT","incongruent","ratings first","female",55,10,FALSE,FALSE
106,"compatible",6,772,1,"Race IAT","incongruent","ratings first","female",55,10,FALSE,FALSE
106,"compatible",7,650,1,"Race IAT","incongruent","ratings first","female",55,10,FALSE,FALSE
106,"compatible",8,558,1,"Race IAT","incongruent","ratings first","female",55,10,FALSE,FALSE
106,"compatible",9,523,1,"Race IAT","incongruent","ratings first","female",55,10,FALSE,FALSE
106,"compatible",10,552,1,"Race IAT","incongruent","ratings first","female",55,10,FALSE,FALSE
106,"compatible",11,528,1,"Race IAT","incongruent","ratings first","female",55,10,FALSE,FALSE
106,"compatible",12,508,1,"Race IAT","incongruent","ratings first","female",55,10,FALSE,FALSE
106,"compatible",13,596,1,"Race IAT","incongruent","ratings first","female",55,10,FALSE,FALSE
106,"compatible",14,585,1,"Race IAT","incongruent","ratings first","female",55,10,FALSE,FALSE
106,"compatible",15,543,1,"Race IAT","incongruent","ratings first","female",55,10,FALSE,FALSE
106,"compatible",16,718,1,"Race IAT","incongruent","ratings first","female",55,10,FALSE,FALSE
106,"compatible",17,1070,1,"Race IAT","incongruent","ratings first","female",55,10,FALSE,FALSE
106,"compatible",18,1645,1,"Race IAT","incongruent","ratings first","female",55,10,FALSE,FALSE
106,"compatible",19,717,1,"Race IAT","incongruent","ratings first","female",55,10,FALSE,FALSE
106,"compatible",20,737,1,"Race IAT","incongruent","ratings first","female",55,10,FALSE,FALSE
106,"compatible",21,623,1,"Race IAT","incongruent","ratings first","female",55,10,FALSE,FALSE
106,"compatible",22,810,1,"Race IAT","incongruent","ratings first","female",55,10,FALSE,FALSE
106,"compatible",23,599,1,"Race IAT","incongruent","ratings first","female",55,10,FALSE,FALSE
106,"compatible",24,522,1,"Race IAT","incongruent","ratings first","female",55,10,FALSE,FALSE
106,"compatible",25,502,1,"Race IAT","incongruent","ratings first","female",55,10,FALSE,FALSE
106,"compatible",26,620,1,"Race IAT","incongruent","ratings first","female",55,10,FALSE,FALSE
106,"compatible",27,661,1,"Race IAT","incongruent","ratings first","female",55,10,FALSE,FALSE
106,"compatible",28,1396,0,"Race IAT","incongruent","ratings first","female",55,10,FALSE,FALSE
106,"compatible",29,793,1,"Race IAT","incongruent","ratings first","female",55,10,FALSE,FALSE
106,"compatible",30,2022,1,"Race IAT","incongruent","ratings first","female",55,10,FALSE,FALSE
106,"compatible",31,1476,1,"Race IAT","incongruent","ratings first","female",55,10,FALSE,FALSE
106,"compatible",32,492,1,"Race IAT","incongruent","ratings first","female",55,10,FALSE,FALSE
106,"compatible",33,549,1,"Race IAT","incongruent","ratings first","female",55,10,FALSE,FALSE
106,"compatible",34,574,1,"Race IAT","incongruent","ratings first","female",55,10,FALSE,FALSE
106,"compatible",35,584,1,"Race IAT","incongruent","ratings first","female",55,10,FALSE,FALSE
106,"compatible",36,566,1,"Race IAT","incongruent","ratings first","female",55,10,FALSE,FALSE
106,"compatible",37,528,1,"Race IAT","incongruent","ratings first","female",55,10,FALSE,FALSE
106,"compatible",38,789,1,"Race IAT","incongruent","ratings first","female",55,10,FALSE,FALSE
106,"compatible",39,577,1,"Race IAT","incongruent","ratings first","female",55,10,FALSE,FALSE
106,"compatible",40,867,1,"Race IAT","incongruent","ratings first","female",55,10,FALSE,FALSE
106,"compatible",41,696,1,"Race IAT","incongruent","ratings first","female",55,10,FALSE,FALSE
106,"compatible",42,758,1,"Race IAT","incongruent","ratings first","female",55,10,FALSE,FALSE
106,"compatible",43,449,1,"Race IAT","incongruent","ratings first","female",55,10,FALSE,FALSE
106,"compatible",44,643,1,"Race IAT","incongruent","ratings first","female",55,10,FALSE,FALSE
106,"compatible",45,599,1,"Race IAT","incongruent","ratings first","female",55,10,FALSE,FALSE
106,"compatible",46,533,1,"Race IAT","incongruent","ratings first","female",55,10,FALSE,FALSE
106,"compatible",47,533,1,"Race IAT","incongruent","ratings first","female",55,10,FALSE,FALSE
106,"compatible",48,1323,1,"Race IAT","incongruent","ratings first","female",55,10,FALSE,FALSE
106,"compatible",49,1244,1,"Race IAT","incongruent","ratings first","female",55,10,FALSE,FALSE
106,"compatible",50,511,1,"Race IAT","incongruent","ratings first","female",55,10,FALSE,FALSE
106,"compatible",51,1629,0,"Race IAT","incongruent","ratings first","female",55,10,FALSE,FALSE
106,"compatible",52,716,1,"Race IAT","incongruent","ratings first","female",55,10,FALSE,FALSE
106,"compatible",53,792,1,"Race IAT","incongruent","ratings first","female",55,10,FALSE,FALSE
106,"compatible",54,900,1,"Race IAT","incongruent","ratings first","female",55,10,FALSE,FALSE
106,"compatible",55,783,1,"Race IAT","incongruent","ratings first","female",55,10,FALSE,FALSE
106,"compatible",56,593,1,"Race IAT","incongruent","ratings first","female",55,10,FALSE,FALSE
106,"compatible",57,602,1,"Race IAT","incongruent","ratings first","female",55,10,FALSE,FALSE
106,"compatible",58,688,1,"Race IAT","incongruent","ratings first","female",55,10,FALSE,FALSE
106,"compatible",59,690,1,"Race IAT","incongruent","ratings first","female",55,10,FALSE,FALSE
106,"compatible",60,1154,1,"Race IAT","incongruent","ratings first","female",55,10,FALSE,FALSE
106,"compatible",61,527,1,"Race IAT","incongruent","ratings first","female",55,10,FALSE,FALSE
106,"compatible",62,506,1,"Race IAT","incongruent","ratings first","female",55,10,FALSE,FALSE
106,"compatible",63,618,1,"Race IAT","incongruent","ratings first","female",55,10,FALSE,FALSE
106,"compatible",64,582,1,"Race IAT","incongruent","ratings first","female",55,10,FALSE,FALSE
106,"compatible",65,717,1,"Race IAT","incongruent","ratings first","female",55,10,FALSE,FALSE
106,"compatible",66,515,1,"Race IAT","incongruent","ratings first","female",55,10,FALSE,FALSE
106,"compatible",67,673,1,"Race IAT","incongruent","ratings first","female",55,10,FALSE,FALSE
106,"compatible",68,649,1,"Race IAT","incongruent","ratings first","female",55,10,FALSE,FALSE
106,"compatible",69,636,1,"Race IAT","incongruent","ratings first","female",55,10,FALSE,FALSE
106,"compatible",70,580,1,"Race IAT","incongruent","ratings first","female",55,10,FALSE,FALSE
107,"compatible",1,5371,1,"Race IAT","congruent","SCIAT first","male",27,33,FALSE,FALSE
107,"compatible",2,1354,1,"Race IAT","congruent","SCIAT first","male",27,33,FALSE,FALSE
107,"compatible",3,889,1,"Race IAT","congruent","SCIAT first","male",27,33,FALSE,FALSE
107,"compatible",4,675,1,"Race IAT","congruent","SCIAT first","male",27,33,FALSE,FALSE
107,"compatible",5,1517,1,"Race IAT","congruent","SCIAT first","male",27,33,FALSE,FALSE
107,"compatible",6,710,1,"Race IAT","congruent","SCIAT first","male",27,33,FALSE,FALSE
107,"compatible",7,1291,1,"Race IAT","congruent","SCIAT first","male",27,33,FALSE,FALSE
107,"compatible",8,846,1,"Race IAT","congruent","SCIAT first","male",27,33,FALSE,FALSE
107,"compatible",9,672,1,"Race IAT","congruent","SCIAT first","male",27,33,FALSE,FALSE
107,"compatible",10,2518,1,"Race IAT","congruent","SCIAT first","male",27,33,FALSE,FALSE
107,"compatible",11,1939,0,"Race IAT","congruent","SCIAT first","male",27,33,FALSE,FALSE
107,"compatible",12,2218,1,"Race IAT","congruent","SCIAT first","male",27,33,FALSE,FALSE
107,"compatible",13,5132,0,"Race IAT","congruent","SCIAT first","male",27,33,FALSE,FALSE
107,"compatible",14,1170,1,"Race IAT","congruent","SCIAT first","male",27,33,FALSE,FALSE
107,"compatible",15,764,1,"Race IAT","congruent","SCIAT first","male",27,33,FALSE,FALSE
107,"compatible",16,620,1,"Race IAT","congruent","SCIAT first","male",27,33,FALSE,FALSE
107,"compatible",17,5343,1,"Race IAT","congruent","SCIAT first","male",27,33,FALSE,FALSE
107,"compatible",18,646,1,"Race IAT","congruent","SCIAT first","male",27,33,FALSE,FALSE
107,"compatible",19,658,1,"Race IAT","congruent","SCIAT first","male",27,33,FALSE,FALSE
107,"compatible",20,1498,1,"Race IAT","congruent","SCIAT first","male",27,33,FALSE,FALSE
107,"compatible",21,781,1,"Race IAT","congruent","SCIAT first","male",27,33,FALSE,FALSE
107,"compatible",22,711,1,"Race IAT","congruent","SCIAT first","male",27,33,FALSE,FALSE
107,"compatible",23,709,1,"Race IAT","congruent","SCIAT first","male",27,33,FALSE,FALSE
107,"compatible",24,1422,1,"Race IAT","congruent","SCIAT first","male",27,33,FALSE,FALSE
107,"compatible",25,1051,1,"Race IAT","congruent","SCIAT first","male",27,33,FALSE,FALSE
107,"compatible",26,899,1,"Race IAT","congruent","SCIAT first","male",27,33,FALSE,FALSE
107,"compatible",27,1096,1,"Race IAT","congruent","SCIAT first","male",27,33,FALSE,FALSE
107,"compatible",28,677,1,"Race IAT","congruent","SCIAT first","male",27,33,FALSE,FALSE
107,"compatible",29,1801,0,"Race IAT","congruent","SCIAT first","male",27,33,FALSE,FALSE
107,"compatible",30,921,1,"Race IAT","congruent","SCIAT first","male",27,33,FALSE,FALSE
107,"compatible",31,715,1,"Race IAT","congruent","SCIAT first","male",27,33,FALSE,FALSE
107,"compatible",32,2771,1,"Race IAT","congruent","SCIAT first","male",27,33,FALSE,FALSE
107,"compatible",33,826,1,"Race IAT","congruent","SCIAT first","male",27,33,FALSE,FALSE
107,"compatible",34,722,1,"Race IAT","congruent","SCIAT first","male",27,33,FALSE,FALSE
107,"compatible",35,715,1,"Race IAT","congruent","SCIAT first","male",27,33,FALSE,FALSE
107,"compatible",36,748,1,"Race IAT","congruent","SCIAT first","male",27,33,FALSE,FALSE
107,"compatible",37,600,1,"Race IAT","congruent","SCIAT first","male",27,33,FALSE,FALSE
107,"compatible",38,460,1,"Race IAT","congruent","SCIAT first","male",27,33,FALSE,FALSE
107,"compatible",39,1050,1,"Race IAT","congruent","SCIAT first","male",27,33,FALSE,FALSE
107,"compatible",40,681,1,"Race IAT","congruent","SCIAT first","male",27,33,FALSE,FALSE
107,"compatible",41,798,1,"Race IAT","congruent","SCIAT first","male",27,33,FALSE,FALSE
107,"compatible",42,931,1,"Race IAT","congruent","SCIAT first","male",27,33,FALSE,FALSE
107,"compatible",43,576,1,"Race IAT","congruent","SCIAT first","male",27,33,FALSE,FALSE
107,"compatible",44,855,1,"Race IAT","congruent","SCIAT first","male",27,33,FALSE,FALSE
107,"compatible",45,889,1,"Race IAT","congruent","SCIAT first","male",27,33,FALSE,FALSE
107,"compatible",46,863,0,"Race IAT","congruent","SCIAT first","male",27,33,FALSE,FALSE
107,"compatible",47,1934,1,"Race IAT","congruent","SCIAT first","male",27,33,FALSE,FALSE
107,"compatible",48,1545,1,"Race IAT","congruent","SCIAT first","male",27,33,FALSE,FALSE
107,"compatible",49,660,1,"Race IAT","congruent","SCIAT first","male",27,33,FALSE,FALSE
107,"compatible",50,877,1,"Race IAT","congruent","SCIAT first","male",27,33,FALSE,FALSE
107,"compatible",51,749,1,"Race IAT","congruent","SCIAT first","male",27,33,FALSE,FALSE
107,"compatible",52,692,1,"Race IAT","congruent","SCIAT first","male",27,33,FALSE,FALSE
107,"compatible",53,867,1,"Race IAT","congruent","SCIAT first","male",27,33,FALSE,FALSE
107,"compatible",54,1563,1,"Race IAT","congruent","SCIAT first","male",27,33,FALSE,FALSE
107,"compatible",55,598,1,"Race IAT","congruent","SCIAT first","male",27,33,FALSE,FALSE
107,"compatible",56,778,1,"Race IAT","congruent","SCIAT first","male",27,33,FALSE,FALSE
107,"compatible",57,669,1,"Race IAT","congruent","SCIAT first","male",27,33,FALSE,FALSE
107,"compatible",58,750,1,"Race IAT","congruent","SCIAT first","male",27,33,FALSE,FALSE
107,"compatible",59,520,1,"Race IAT","congruent","SCIAT first","male",27,33,FALSE,FALSE
107,"compatible",60,1300,0,"Race IAT","congruent","SCIAT first","male",27,33,FALSE,FALSE
107,"compatible",61,710,1,"Race IAT","congruent","SCIAT first","male",27,33,FALSE,FALSE
107,"compatible",62,682,1,"Race IAT","congruent","SCIAT first","male",27,33,FALSE,FALSE
107,"compatible",63,608,1,"Race IAT","congruent","SCIAT first","male",27,33,FALSE,FALSE
107,"compatible",64,1342,1,"Race IAT","congruent","SCIAT first","male",27,33,FALSE,FALSE
107,"compatible",65,647,1,"Race IAT","congruent","SCIAT first","male",27,33,FALSE,FALSE
107,"compatible",66,1177,1,"Race IAT","congruent","SCIAT first","male",27,33,FALSE,FALSE
107,"compatible",67,653,1,"Race IAT","congruent","SCIAT first","male",27,33,FALSE,FALSE
107,"compatible",68,781,1,"Race IAT","congruent","SCIAT first","male",27,33,FALSE,FALSE
107,"compatible",69,617,1,"Race IAT","congruent","SCIAT first","male",27,33,FALSE,FALSE
107,"compatible",70,573,1,"Race IAT","congruent","SCIAT first","male",27,33,FALSE,FALSE
107,"incompatible",1,3740,1,"Race IAT","congruent","SCIAT first","male",27,33,FALSE,FALSE
107,"incompatible",2,1640,0,"Race IAT","congruent","SCIAT first","male",27,33,FALSE,FALSE
107,"incompatible",3,4860,1,"Race IAT","congruent","SCIAT first","male",27,33,FALSE,FALSE
107,"incompatible",4,1991,1,"Race IAT","congruent","SCIAT first","male",27,33,FALSE,FALSE
107,"incompatible",5,3941,1,"Race IAT","congruent","SCIAT first","male",27,33,FALSE,FALSE
107,"incompatible",6,894,1,"Race IAT","congruent","SCIAT first","male",27,33,FALSE,FALSE
107,"incompatible",7,697,1,"Race IAT","congruent","SCIAT first","male",27,33,FALSE,FALSE
107,"incompatible",8,886,1,"Race IAT","congruent","SCIAT first","male",27,33,FALSE,FALSE
107,"incompatible",9,676,1,"Race IAT","congruent","SCIAT first","male",27,33,FALSE,FALSE
107,"incompatible",10,688,1,"Race IAT","congruent","SCIAT first","male",27,33,FALSE,FALSE
107,"incompatible",11,805,1,"Race IAT","congruent","SCIAT first","male",27,33,FALSE,FALSE
107,"incompatible",12,1381,1,"Race IAT","congruent","SCIAT first","male",27,33,FALSE,FALSE
107,"incompatible",13,768,1,"Race IAT","congruent","SCIAT first","male",27,33,FALSE,FALSE
107,"incompatible",14,458,1,"Race IAT","congruent","SCIAT first","male",27,33,FALSE,FALSE
107,"incompatible",15,725,1,"Race IAT","congruent","SCIAT first","male",27,33,FALSE,FALSE
107,"incompatible",16,592,1,"Race IAT","congruent","SCIAT first","male",27,33,FALSE,FALSE
107,"incompatible",17,648,1,"Race IAT","congruent","SCIAT first","male",27,33,FALSE,FALSE
107,"incompatible",18,484,1,"Race IAT","congruent","SCIAT first","male",27,33,FALSE,FALSE
107,"incompatible",19,732,1,"Race IAT","congruent","SCIAT first","male",27,33,FALSE,FALSE
107,"incompatible",20,656,1,"Race IAT","congruent","SCIAT first","male",27,33,FALSE,FALSE
107,"incompatible",21,489,1,"Race IAT","congruent","SCIAT first","male",27,33,FALSE,FALSE
107,"incompatible",22,720,1,"Race IAT","congruent","SCIAT first","male",27,33,FALSE,FALSE
107,"incompatible",23,682,1,"Race IAT","congruent","SCIAT first","male",27,33,FALSE,FALSE
107,"incompatible",24,564,1,"Race IAT","congruent","SCIAT first","male",27,33,FALSE,FALSE
107,"incompatible",25,691,1,"Race IAT","congruent","SCIAT first","male",27,33,FALSE,FALSE
107,"incompatible",26,909,1,"Race IAT","congruent","SCIAT first","male",27,33,FALSE,FALSE
107,"incompatible",27,1052,1,"Race IAT","congruent","SCIAT first","male",27,33,FALSE,FALSE
107,"incompatible",28,753,1,"Race IAT","congruent","SCIAT first","male",27,33,FALSE,FALSE
107,"incompatible",29,1157,1,"Race IAT","congruent","SCIAT first","male",27,33,FALSE,FALSE
107,"incompatible",30,1079,1,"Race IAT","congruent","SCIAT first","male",27,33,FALSE,FALSE
107,"incompatible",31,874,1,"Race IAT","congruent","SCIAT first","male",27,33,FALSE,FALSE
107,"incompatible",32,668,1,"Race IAT","congruent","SCIAT first","male",27,33,FALSE,FALSE
107,"incompatible",33,730,1,"Race IAT","congruent","SCIAT first","male",27,33,FALSE,FALSE
107,"incompatible",34,818,1,"Race IAT","congruent","SCIAT first","male",27,33,FALSE,FALSE
107,"incompatible",35,898,1,"Race IAT","congruent","SCIAT first","male",27,33,FALSE,FALSE
107,"incompatible",36,891,1,"Race IAT","congruent","SCIAT first","male",27,33,FALSE,FALSE
107,"incompatible",37,588,1,"Race IAT","congruent","SCIAT first","male",27,33,FALSE,FALSE
107,"incompatible",38,1510,1,"Race IAT","congruent","SCIAT first","male",27,33,FALSE,FALSE
107,"incompatible",39,681,1,"Race IAT","congruent","SCIAT first","male",27,33,FALSE,FALSE
107,"incompatible",40,615,1,"Race IAT","congruent","SCIAT first","male",27,33,FALSE,FALSE
107,"incompatible",41,696,1,"Race IAT","congruent","SCIAT first","male",27,33,FALSE,FALSE
107,"incompatible",42,659,1,"Race IAT","congruent","SCIAT first","male",27,33,FALSE,FALSE
107,"incompatible",43,986,1,"Race IAT","congruent","SCIAT first","male",27,33,FALSE,FALSE
107,"incompatible",44,1056,1,"Race IAT","congruent","SCIAT first","male",27,33,FALSE,FALSE
107,"incompatible",45,807,0,"Race IAT","congruent","SCIAT first","male",27,33,FALSE,FALSE
107,"incompatible",46,1124,1,"Race IAT","congruent","SCIAT first","male",27,33,FALSE,FALSE
107,"incompatible",47,1021,1,"Race IAT","congruent","SCIAT first","male",27,33,FALSE,FALSE
107,"incompatible",48,763,1,"Race IAT","congruent","SCIAT first","male",27,33,FALSE,FALSE
107,"incompatible",49,891,1,"Race IAT","congruent","SCIAT first","male",27,33,FALSE,FALSE
107,"incompatible",50,739,0,"Race IAT","congruent","SCIAT first","male",27,33,FALSE,FALSE
107,"incompatible",51,857,0,"Race IAT","congruent","SCIAT first","male",27,33,FALSE,FALSE
107,"incompatible",52,710,1,"Race IAT","congruent","SCIAT first","male",27,33,FALSE,FALSE
107,"incompatible",53,2956,1,"Race IAT","congruent","SCIAT first","male",27,33,FALSE,FALSE
107,"incompatible",54,883,1,"Race IAT","congruent","SCIAT first","male",27,33,FALSE,FALSE
107,"incompatible",55,4230,0,"Race IAT","congruent","SCIAT first","male",27,33,FALSE,FALSE
107,"incompatible",56,813,1,"Race IAT","congruent","SCIAT first","male",27,33,FALSE,FALSE
107,"incompatible",57,738,1,"Race IAT","congruent","SCIAT first","male",27,33,FALSE,FALSE
107,"incompatible",58,861,1,"Race IAT","congruent","SCIAT first","male",27,33,FALSE,FALSE
107,"incompatible",59,961,1,"Race IAT","congruent","SCIAT first","male",27,33,FALSE,FALSE
107,"incompatible",60,712,1,"Race IAT","congruent","SCIAT first","male",27,33,FALSE,FALSE
107,"incompatible",61,1595,1,"Race IAT","congruent","SCIAT first","male",27,33,FALSE,FALSE
107,"incompatible",62,674,1,"Race IAT","congruent","SCIAT first","male",27,33,FALSE,FALSE
107,"incompatible",63,1125,1,"Race IAT","congruent","SCIAT first","male",27,33,FALSE,FALSE
107,"incompatible",64,792,0,"Race IAT","congruent","SCIAT first","male",27,33,FALSE,FALSE
107,"incompatible",65,893,1,"Race IAT","congruent","SCIAT first","male",27,33,FALSE,FALSE
107,"incompatible",66,573,1,"Race IAT","congruent","SCIAT first","male",27,33,FALSE,FALSE
107,"incompatible",67,905,0,"Race IAT","congruent","SCIAT first","male",27,33,FALSE,FALSE
107,"incompatible",68,955,1,"Race IAT","congruent","SCIAT first","male",27,33,FALSE,FALSE
107,"incompatible",69,904,1,"Race IAT","congruent","SCIAT first","male",27,33,FALSE,FALSE
107,"incompatible",70,1972,0,"Race IAT","congruent","SCIAT first","male",27,33,FALSE,FALSE
109,"compatible",1,2989,1,"Flowers-Insects IAT","congruent","ratings first","female",51,20,FALSE,FALSE
109,"compatible",2,517,1,"Flowers-Insects IAT","congruent","ratings first","female",51,20,FALSE,FALSE
109,"compatible",3,655,1,"Flowers-Insects IAT","congruent","ratings first","female",51,20,FALSE,FALSE
109,"compatible",4,571,1,"Flowers-Insects IAT","congruent","ratings first","female",51,20,FALSE,FALSE
109,"compatible",5,580,1,"Flowers-Insects IAT","congruent","ratings first","female",51,20,FALSE,FALSE
109,"compatible",6,836,1,"Flowers-Insects IAT","congruent","ratings first","female",51,20,FALSE,FALSE
109,"compatible",7,628,1,"Flowers-Insects IAT","congruent","ratings first","female",51,20,FALSE,FALSE
109,"compatible",8,1281,1,"Flowers-Insects IAT","congruent","ratings first","female",51,20,FALSE,FALSE
109,"compatible",9,636,1,"Flowers-Insects IAT","congruent","ratings first","female",51,20,FALSE,FALSE
109,"compatible",10,661,1,"Flowers-Insects IAT","congruent","ratings first","female",51,20,FALSE,FALSE
109,"compatible",11,524,1,"Flowers-Insects IAT","congruent","ratings first","female",51,20,FALSE,FALSE
109,"compatible",12,559,1,"Flowers-Insects IAT","congruent","ratings first","female",51,20,FALSE,FALSE
109,"compatible",13,626,1,"Flowers-Insects IAT","congruent","ratings first","female",51,20,FALSE,FALSE
109,"compatible",14,465,1,"Flowers-Insects IAT","congruent","ratings first","female",51,20,FALSE,FALSE
109,"compatible",15,485,1,"Flowers-Insects IAT","congruent","ratings first","female",51,20,FALSE,FALSE
109,"compatible",16,673,1,"Flowers-Insects IAT","congruent","ratings first","female",51,20,FALSE,FALSE
109,"compatible",17,542,1,"Flowers-Insects IAT","congruent","ratings first","female",51,20,FALSE,FALSE
109,"compatible",18,492,1,"Flowers-Insects IAT","congruent","ratings first","female",51,20,FALSE,FALSE
109,"compatible",19,474,1,"Flowers-Insects IAT","congruent","ratings first","female",51,20,FALSE,FALSE
109,"compatible",20,514,1,"Flowers-Insects IAT","congruent","ratings first","female",51,20,FALSE,FALSE
109,"compatible",21,574,1,"Flowers-Insects IAT","congruent","ratings first","female",51,20,FALSE,FALSE
109,"compatible",22,475,1,"Flowers-Insects IAT","congruent","ratings first","female",51,20,FALSE,FALSE
109,"compatible",23,443,1,"Flowers-Insects IAT","congruent","ratings first","female",51,20,FALSE,FALSE
109,"compatible",24,530,1,"Flowers-Insects IAT","congruent","ratings first","female",51,20,FALSE,FALSE
109,"compatible",25,831,0,"Flowers-Insects IAT","congruent","ratings first","female",51,20,FALSE,FALSE
109,"compatible",26,506,1,"Flowers-Insects IAT","congruent","ratings first","female",51,20,FALSE,FALSE
109,"compatible",27,426,1,"Flowers-Insects IAT","congruent","ratings first","female",51,20,FALSE,FALSE
109,"compatible",28,473,1,"Flowers-Insects IAT","congruent","ratings first","female",51,20,FALSE,FALSE
109,"compatible",29,990,1,"Flowers-Insects IAT","congruent","ratings first","female",51,20,FALSE,FALSE
109,"compatible",30,757,1,"Flowers-Insects IAT","congruent","ratings first","female",51,20,FALSE,FALSE
109,"compatible",31,692,0,"Flowers-Insects IAT","congruent","ratings first","female",51,20,FALSE,FALSE
109,"compatible",32,696,1,"Flowers-Insects IAT","congruent","ratings first","female",51,20,FALSE,FALSE
109,"compatible",33,446,1,"Flowers-Insects IAT","congruent","ratings first","female",51,20,FALSE,FALSE
109,"compatible",34,561,1,"Flowers-Insects IAT","congruent","ratings first","female",51,20,FALSE,FALSE
109,"compatible",35,561,1,"Flowers-Insects IAT","congruent","ratings first","female",51,20,FALSE,FALSE
109,"compatible",36,647,1,"Flowers-Insects IAT","congruent","ratings first","female",51,20,FALSE,FALSE
109,"compatible",37,690,1,"Flowers-Insects IAT","congruent","ratings first","female",51,20,FALSE,FALSE
109,"compatible",38,458,1,"Flowers-Insects IAT","congruent","ratings first","female",51,20,FALSE,FALSE
109,"compatible",39,1101,1,"Flowers-Insects IAT","congruent","ratings first","female",51,20,FALSE,FALSE
109,"compatible",40,623,1,"Flowers-Insects IAT","congruent","ratings first","female",51,20,FALSE,FALSE
109,"compatible",41,539,1,"Flowers-Insects IAT","congruent","ratings first","female",51,20,FALSE,FALSE
109,"compatible",42,522,1,"Flowers-Insects IAT","congruent","ratings first","female",51,20,FALSE,FALSE
109,"compatible",43,567,1,"Flowers-Insects IAT","congruent","ratings first","female",51,20,FALSE,FALSE
109,"compatible",44,770,0,"Flowers-Insects IAT","congruent","ratings first","female",51,20,FALSE,FALSE
109,"compatible",45,355,1,"Flowers-Insects IAT","congruent","ratings first","female",51,20,FALSE,FALSE
109,"compatible",46,533,1,"Flowers-Insects IAT","congruent","ratings first","female",51,20,FALSE,FALSE
109,"compatible",47,429,1,"Flowers-Insects IAT","congruent","ratings first","female",51,20,FALSE,FALSE
109,"compatible",48,444,1,"Flowers-Insects IAT","congruent","ratings first","female",51,20,FALSE,FALSE
109,"compatible",49,631,1,"Flowers-Insects IAT","congruent","ratings first","female",51,20,FALSE,FALSE
109,"compatible",50,436,1,"Flowers-Insects IAT","congruent","ratings first","female",51,20,FALSE,FALSE
109,"compatible",51,808,1,"Flowers-Insects IAT","congruent","ratings first","female",51,20,FALSE,FALSE
109,"compatible",52,366,1,"Flowers-Insects IAT","congruent","ratings first","female",51,20,FALSE,FALSE
109,"compatible",53,677,0,"Flowers-Insects IAT","congruent","ratings first","female",51,20,FALSE,FALSE
109,"compatible",54,683,1,"Flowers-Insects IAT","congruent","ratings first","female",51,20,FALSE,FALSE
109,"compatible",55,829,1,"Flowers-Insects IAT","congruent","ratings first","female",51,20,FALSE,FALSE
109,"compatible",56,619,1,"Flowers-Insects IAT","congruent","ratings first","female",51,20,FALSE,FALSE
109,"compatible",57,2115,1,"Flowers-Insects IAT","congruent","ratings first","female",51,20,FALSE,FALSE
109,"compatible",58,581,1,"Flowers-Insects IAT","congruent","ratings first","female",51,20,FALSE,FALSE
109,"compatible",59,703,1,"Flowers-Insects IAT","congruent","ratings first","female",51,20,FALSE,FALSE
109,"compatible",60,602,1,"Flowers-Insects IAT","congruent","ratings first","female",51,20,FALSE,FALSE
109,"compatible",61,645,1,"Flowers-Insects IAT","congruent","ratings first","female",51,20,FALSE,FALSE
109,"compatible",62,577,1,"Flowers-Insects IAT","congruent","ratings first","female",51,20,FALSE,FALSE
109,"compatible",63,598,1,"Flowers-Insects IAT","congruent","ratings first","female",51,20,FALSE,FALSE
109,"compatible",64,478,1,"Flowers-Insects IAT","congruent","ratings first","female",51,20,FALSE,FALSE
109,"compatible",65,488,1,"Flowers-Insects IAT","congruent","ratings first","female",51,20,FALSE,FALSE
109,"compatible",66,526,1,"Flowers-Insects IAT","congruent","ratings first","female",51,20,FALSE,FALSE
109,"compatible",67,652,1,"Flowers-Insects IAT","congruent","ratings first","female",51,20,FALSE,FALSE
109,"compatible",68,456,1,"Flowers-Insects IAT","congruent","ratings first","female",51,20,FALSE,FALSE
109,"compatible",69,370,1,"Flowers-Insects IAT","congruent","ratings first","female",51,20,FALSE,FALSE
109,"compatible",70,514,1,"Flowers-Insects IAT","congruent","ratings first","female",51,20,FALSE,FALSE
109,"incompatible",1,1486,1,"Flowers-Insects IAT","congruent","ratings first","female",51,20,FALSE,FALSE
109,"incompatible",2,1018,1,"Flowers-Insects IAT","congruent","ratings first","female",51,20,FALSE,FALSE
109,"incompatible",3,779,1,"Flowers-Insects IAT","congruent","ratings first","female",51,20,FALSE,FALSE
109,"incompatible",4,485,1,"Flowers-Insects IAT","congruent","ratings first","female",51,20,FALSE,FALSE
109,"incompatible",5,369,1,"Flowers-Insects IAT","congruent","ratings first","female",51,20,FALSE,FALSE
109,"incompatible",6,456,1,"Flowers-Insects IAT","congruent","ratings first","female",51,20,FALSE,FALSE
109,"incompatible",7,544,1,"Flowers-Insects IAT","congruent","ratings first","female",51,20,FALSE,FALSE
109,"incompatible",8,557,1,"Flowers-Insects IAT","congruent","ratings first","female",51,20,FALSE,FALSE
109,"incompatible",9,437,1,"Flowers-Insects IAT","congruent","ratings first","female",51,20,FALSE,FALSE
109,"incompatible",10,580,1,"Flowers-Insects IAT","congruent","ratings first","female",51,20,FALSE,FALSE
109,"incompatible",11,670,1,"Flowers-Insects IAT","congruent","ratings first","female",51,20,FALSE,FALSE
109,"incompatible",12,647,1,"Flowers-Insects IAT","congruent","ratings first","female",51,20,FALSE,FALSE
109,"incompatible",13,752,1,"Flowers-Insects IAT","congruent","ratings first","female",51,20,FALSE,FALSE
109,"incompatible",14,612,1,"Flowers-Insects IAT","congruent","ratings first","female",51,20,FALSE,FALSE
109,"incompatible",15,569,1,"Flowers-Insects IAT","congruent","ratings first","female",51,20,FALSE,FALSE
109,"incompatible",16,455,1,"Flowers-Insects IAT","congruent","ratings first","female",51,20,FALSE,FALSE
109,"incompatible",17,545,1,"Flowers-Insects IAT","congruent","ratings first","female",51,20,FALSE,FALSE
109,"incompatible",18,540,1,"Flowers-Insects IAT","congruent","ratings first","female",51,20,FALSE,FALSE
109,"incompatible",19,704,0,"Flowers-Insects IAT","congruent","ratings first","female",51,20,FALSE,FALSE
109,"incompatible",20,844,1,"Flowers-Insects IAT","congruent","ratings first","female",51,20,FALSE,FALSE
109,"incompatible",21,688,1,"Flowers-Insects IAT","congruent","ratings first","female",51,20,FALSE,FALSE
109,"incompatible",22,809,1,"Flowers-Insects IAT","congruent","ratings first","female",51,20,FALSE,FALSE
109,"incompatible",23,424,1,"Flowers-Insects IAT","congruent","ratings first","female",51,20,FALSE,FALSE
109,"incompatible",24,496,1,"Flowers-Insects IAT","congruent","ratings first","female",51,20,FALSE,FALSE
109,"incompatible",25,688,1,"Flowers-Insects IAT","congruent","ratings first","female",51,20,FALSE,FALSE
109,"incompatible",26,374,1,"Flowers-Insects IAT","congruent","ratings first","female",51,20,FALSE,FALSE
109,"incompatible",27,572,1,"Flowers-Insects IAT","congruent","ratings first","female",51,20,FALSE,FALSE
109,"incompatible",28,524,1,"Flowers-Insects IAT","congruent","ratings first","female",51,20,FALSE,FALSE
109,"incompatible",29,593,1,"Flowers-Insects IAT","congruent","ratings first","female",51,20,FALSE,FALSE
109,"incompatible",30,490,1,"Flowers-Insects IAT","congruent","ratings first","female",51,20,FALSE,FALSE
109,"incompatible",31,386,1,"Flowers-Insects IAT","congruent","ratings first","female",51,20,FALSE,FALSE
109,"incompatible",32,350,1,"Flowers-Insects IAT","congruent","ratings first","female",51,20,FALSE,FALSE
109,"incompatible",33,435,1,"Flowers-Insects IAT","congruent","ratings first","female",51,20,FALSE,FALSE
109,"incompatible",34,1469,1,"Flowers-Insects IAT","congruent","ratings first","female",51,20,FALSE,FALSE
109,"incompatible",35,731,1,"Flowers-Insects IAT","congruent","ratings first","female",51,20,FALSE,FALSE
109,"incompatible",36,486,1,"Flowers-Insects IAT","congruent","ratings first","female",51,20,FALSE,FALSE
109,"incompatible",37,586,1,"Flowers-Insects IAT","congruent","ratings first","female",51,20,FALSE,FALSE
109,"incompatible",38,376,1,"Flowers-Insects IAT","congruent","ratings first","female",51,20,FALSE,FALSE
109,"incompatible",39,425,1,"Flowers-Insects IAT","congruent","ratings first","female",51,20,FALSE,FALSE
109,"incompatible",40,479,1,"Flowers-Insects IAT","congruent","ratings first","female",51,20,FALSE,FALSE
109,"incompatible",41,434,1,"Flowers-Insects IAT","congruent","ratings first","female",51,20,FALSE,FALSE
109,"incompatible",42,781,0,"Flowers-Insects IAT","congruent","ratings first","female",51,20,FALSE,FALSE
109,"incompatible",43,501,1,"Flowers-Insects IAT","congruent","ratings first","female",51,20,FALSE,FALSE
109,"incompatible",44,849,1,"Flowers-Insects IAT","congruent","ratings first","female",51,20,FALSE,FALSE
109,"incompatible",45,397,1,"Flowers-Insects IAT","congruent","ratings first","female",51,20,FALSE,FALSE
109,"incompatible",46,363,1,"Flowers-Insects IAT","congruent","ratings first","female",51,20,FALSE,FALSE
109,"incompatible",47,478,1,"Flowers-Insects IAT","congruent","ratings first","female",51,20,FALSE,FALSE
109,"incompatible",48,494,1,"Flowers-Insects IAT","congruent","ratings first","female",51,20,FALSE,FALSE
109,"incompatible",49,562,1,"Flowers-Insects IAT","congruent","ratings first","female",51,20,FALSE,FALSE
109,"incompatible",50,746,0,"Flowers-Insects IAT","congruent","ratings first","female",51,20,FALSE,FALSE
109,"incompatible",51,258,1,"Flowers-Insects IAT","congruent","ratings first","female",51,20,FALSE,FALSE
109,"incompatible",52,185,1,"Flowers-Insects IAT","congruent","ratings first","female",51,20,FALSE,FALSE
109,"incompatible",53,312,1,"Flowers-Insects IAT","congruent","ratings first","female",51,20,FALSE,FALSE
109,"incompatible",54,615,1,"Flowers-Insects IAT","congruent","ratings first","female",51,20,FALSE,FALSE
109,"incompatible",55,774,0,"Flowers-Insects IAT","congruent","ratings first","female",51,20,FALSE,FALSE
109,"incompatible",56,564,1,"Flowers-Insects IAT","congruent","ratings first","female",51,20,FALSE,FALSE
109,"incompatible",57,485,1,"Flowers-Insects IAT","congruent","ratings first","female",51,20,FALSE,FALSE
109,"incompatible",58,481,1,"Flowers-Insects IAT","congruent","ratings first","female",51,20,FALSE,FALSE
109,"incompatible",59,456,1,"Flowers-Insects IAT","congruent","ratings first","female",51,20,FALSE,FALSE
109,"incompatible",60,404,1,"Flowers-Insects IAT","congruent","ratings first","female",51,20,FALSE,FALSE
109,"incompatible",61,488,1,"Flowers-Insects IAT","congruent","ratings first","female",51,20,FALSE,FALSE
109,"incompatible",62,431,1,"Flowers-Insects IAT","congruent","ratings first","female",51,20,FALSE,FALSE
109,"incompatible",63,463,1,"Flowers-Insects IAT","congruent","ratings first","female",51,20,FALSE,FALSE
109,"incompatible",64,463,1,"Flowers-Insects IAT","congruent","ratings first","female",51,20,FALSE,FALSE
109,"incompatible",65,414,1,"Flowers-Insects IAT","congruent","ratings first","female",51,20,FALSE,FALSE
109,"incompatible",66,649,0,"Flowers-Insects IAT","congruent","ratings first","female",51,20,FALSE,FALSE
109,"incompatible",67,322,1,"Flowers-Insects IAT","congruent","ratings first","female",51,20,FALSE,FALSE
109,"incompatible",68,411,1,"Flowers-Insects IAT","congruent","ratings first","female",51,20,FALSE,FALSE
109,"incompatible",69,616,0,"Flowers-Insects IAT","congruent","ratings first","female",51,20,FALSE,FALSE
109,"incompatible",70,701,0,"Flowers-Insects IAT","congruent","ratings first","female",51,20,FALSE,FALSE
110,"incompatible",1,713,1,"Flowers-Insects IAT","incongruent","ratings first","female",18,15,FALSE,FALSE
110,"incompatible",2,493,1,"Flowers-Insects IAT","incongruent","ratings first","female",18,15,FALSE,FALSE
110,"incompatible",3,557,1,"Flowers-Insects IAT","incongruent","ratings first","female",18,15,FALSE,FALSE
110,"incompatible",4,476,1,"Flowers-Insects IAT","incongruent","ratings first","female",18,15,FALSE,FALSE
110,"incompatible",5,420,1,"Flowers-Insects IAT","incongruent","ratings first","female",18,15,FALSE,FALSE
110,"incompatible",6,394,1,"Flowers-Insects IAT","incongruent","ratings first","female",18,15,FALSE,FALSE
110,"incompatible",7,543,1,"Flowers-Insects IAT","incongruent","ratings first","female",18,15,FALSE,FALSE
110,"incompatible",8,484,1,"Flowers-Insects IAT","incongruent","ratings first","female",18,15,FALSE,FALSE
110,"incompatible",9,570,1,"Flowers-Insects IAT","incongruent","ratings first","female",18,15,FALSE,FALSE
110,"incompatible",10,671,0,"Flowers-Insects IAT","incongruent","ratings first","female",18,15,FALSE,FALSE
110,"incompatible",11,480,1,"Flowers-Insects IAT","incongruent","ratings first","female",18,15,FALSE,FALSE
110,"incompatible",12,474,1,"Flowers-Insects IAT","incongruent","ratings first","female",18,15,FALSE,FALSE
110,"incompatible",13,428,1,"Flowers-Insects IAT","incongruent","ratings first","female",18,15,FALSE,FALSE
110,"incompatible",14,495,1,"Flowers-Insects IAT","incongruent","ratings first","female",18,15,FALSE,FALSE
110,"incompatible",15,521,1,"Flowers-Insects IAT","incongruent","ratings first","female",18,15,FALSE,FALSE
110,"incompatible",16,456,1,"Flowers-Insects IAT","incongruent","ratings first","female",18,15,FALSE,FALSE
110,"incompatible",17,511,1,"Flowers-Insects IAT","incongruent","ratings first","female",18,15,FALSE,FALSE
110,"incompatible",18,540,1,"Flowers-Insects IAT","incongruent","ratings first","female",18,15,FALSE,FALSE
110,"incompatible",19,533,1,"Flowers-Insects IAT","incongruent","ratings first","female",18,15,FALSE,FALSE
110,"incompatible",20,553,1,"Flowers-Insects IAT","incongruent","ratings first","female",18,15,FALSE,FALSE
110,"incompatible",21,506,1,"Flowers-Insects IAT","incongruent","ratings first","female",18,15,FALSE,FALSE
110,"incompatible",22,472,1,"Flowers-Insects IAT","incongruent","ratings first","female",18,15,FALSE,FALSE
110,"incompatible",23,418,1,"Flowers-Insects IAT","incongruent","ratings first","female",18,15,FALSE,FALSE
110,"incompatible",24,357,1,"Flowers-Insects IAT","incongruent","ratings first","female",18,15,FALSE,FALSE
110,"incompatible",25,334,1,"Flowers-Insects IAT","incongruent","ratings first","female",18,15,FALSE,FALSE
110,"incompatible",26,330,1,"Flowers-Insects IAT","incongruent","ratings first","female",18,15,FALSE,FALSE
110,"incompatible",27,735,0,"Flowers-Insects IAT","incongruent","ratings first","female",18,15,FALSE,FALSE
110,"incompatible",28,564,1,"Flowers-Insects IAT","incongruent","ratings first","female",18,15,FALSE,FALSE
110,"incompatible",29,835,0,"Flowers-Insects IAT","incongruent","ratings first","female",18,15,FALSE,FALSE
110,"incompatible",30,574,1,"Flowers-Insects IAT","incongruent","ratings first","female",18,15,FALSE,FALSE
110,"incompatible",31,489,1,"Flowers-Insects IAT","incongruent","ratings first","female",18,15,FALSE,FALSE
110,"incompatible",32,809,0,"Flowers-Insects IAT","incongruent","ratings first","female",18,15,FALSE,FALSE
110,"incompatible",33,540,1,"Flowers-Insects IAT","incongruent","ratings first","female",18,15,FALSE,FALSE
110,"incompatible",34,583,1,"Flowers-Insects IAT","incongruent","ratings first","female",18,15,FALSE,FALSE
110,"incompatible",35,503,1,"Flowers-Insects IAT","incongruent","ratings first","female",18,15,FALSE,FALSE
110,"incompatible",36,456,1,"Flowers-Insects IAT","incongruent","ratings first","female",18,15,FALSE,FALSE
110,"incompatible",37,461,1,"Flowers-Insects IAT","incongruent","ratings first","female",18,15,FALSE,FALSE
110,"incompatible",38,469,1,"Flowers-Insects IAT","incongruent","ratings first","female",18,15,FALSE,FALSE
110,"incompatible",39,701,0,"Flowers-Insects IAT","incongruent","ratings first","female",18,15,FALSE,FALSE
110,"incompatible",40,475,1,"Flowers-Insects IAT","incongruent","ratings first","female",18,15,FALSE,FALSE
110,"incompatible",41,720,0,"Flowers-Insects IAT","incongruent","ratings first","female",18,15,FALSE,FALSE
110,"incompatible",42,451,1,"Flowers-Insects IAT","incongruent","ratings first","female",18,15,FALSE,FALSE
110,"incompatible",43,682,0,"Flowers-Insects IAT","incongruent","ratings first","female",18,15,FALSE,FALSE
110,"incompatible",44,470,1,"Flowers-Insects IAT","incongruent","ratings first","female",18,15,FALSE,FALSE
110,"incompatible",45,447,1,"Flowers-Insects IAT","incongruent","ratings first","female",18,15,FALSE,FALSE
110,"incompatible",46,463,1,"Flowers-Insects IAT","incongruent","ratings first","female",18,15,FALSE,FALSE
110,"incompatible",47,402,1,"Flowers-Insects IAT","incongruent","ratings first","female",18,15,FALSE,FALSE
110,"incompatible",48,410,1,"Flowers-Insects IAT","incongruent","ratings first","female",18,15,FALSE,FALSE
110,"incompatible",49,426,1,"Flowers-Insects IAT","incongruent","ratings first","female",18,15,FALSE,FALSE
110,"incompatible",50,372,1,"Flowers-Insects IAT","incongruent","ratings first","female",18,15,FALSE,FALSE
110,"incompatible",51,429,1,"Flowers-Insects IAT","incongruent","ratings first","female",18,15,FALSE,FALSE
110,"incompatible",52,438,1,"Flowers-Insects IAT","incongruent","ratings first","female",18,15,FALSE,FALSE
110,"incompatible",53,365,1,"Flowers-Insects IAT","incongruent","ratings first","female",18,15,FALSE,FALSE
110,"incompatible",54,726,0,"Flowers-Insects IAT","incongruent","ratings first","female",18,15,FALSE,FALSE
110,"incompatible",55,737,0,"Flowers-Insects IAT","incongruent","ratings first","female",18,15,FALSE,FALSE
110,"incompatible",56,530,1,"Flowers-Insects IAT","incongruent","ratings first","female",18,15,FALSE,FALSE
110,"incompatible",57,599,0,"Flowers-Insects IAT","incongruent","ratings first","female",18,15,FALSE,FALSE
110,"incompatible",58,614,1,"Flowers-Insects IAT","incongruent","ratings first","female",18,15,FALSE,FALSE
110,"incompatible",59,381,1,"Flowers-Insects IAT","incongruent","ratings first","female",18,15,FALSE,FALSE
110,"incompatible",60,736,0,"Flowers-Insects IAT","incongruent","ratings first","female",18,15,FALSE,FALSE
110,"incompatible",61,571,1,"Flowers-Insects IAT","incongruent","ratings first","female",18,15,FALSE,FALSE
110,"incompatible",62,522,1,"Flowers-Insects IAT","incongruent","ratings first","female",18,15,FALSE,FALSE
110,"incompatible",63,451,1,"Flowers-Insects IAT","incongruent","ratings first","female",18,15,FALSE,FALSE
110,"incompatible",64,438,1,"Flowers-Insects IAT","incongruent","ratings first","female",18,15,FALSE,FALSE
110,"incompatible",65,437,1,"Flowers-Insects IAT","incongruent","ratings first","female",18,15,FALSE,FALSE
110,"incompatible",66,573,0,"Flowers-Insects IAT","incongruent","ratings first","female",18,15,FALSE,FALSE
110,"incompatible",67,543,1,"Flowers-Insects IAT","incongruent","ratings first","female",18,15,FALSE,FALSE
110,"incompatible",68,613,1,"Flowers-Insects IAT","incongruent","ratings first","female",18,15,FALSE,FALSE
110,"incompatible",69,747,0,"Flowers-Insects IAT","incongruent","ratings first","female",18,15,FALSE,FALSE
110,"incompatible",70,1023,1,"Flowers-Insects IAT","incongruent","ratings first","female",18,15,FALSE,FALSE
110,"compatible",1,662,1,"Flowers-Insects IAT","incongruent","ratings first","female",18,15,FALSE,FALSE
110,"compatible",2,545,1,"Flowers-Insects IAT","incongruent","ratings first","female",18,15,FALSE,FALSE
110,"compatible",3,494,1,"Flowers-Insects IAT","incongruent","ratings first","female",18,15,FALSE,FALSE
110,"compatible",4,456,1,"Flowers-Insects IAT","incongruent","ratings first","female",18,15,FALSE,FALSE
110,"compatible",5,468,1,"Flowers-Insects IAT","incongruent","ratings first","female",18,15,FALSE,FALSE
110,"compatible",6,469,1,"Flowers-Insects IAT","incongruent","ratings first","female",18,15,FALSE,FALSE
110,"compatible",7,697,1,"Flowers-Insects IAT","incongruent","ratings first","female",18,15,FALSE,FALSE
110,"compatible",8,458,1,"Flowers-Insects IAT","incongruent","ratings first","female",18,15,FALSE,FALSE
110,"compatible",9,758,0,"Flowers-Insects IAT","incongruent","ratings first","female",18,15,FALSE,FALSE
110,"compatible",10,504,1,"Flowers-Insects IAT","incongruent","ratings first","female",18,15,FALSE,FALSE
110,"compatible",11,466,1,"Flowers-Insects IAT","incongruent","ratings first","female",18,15,FALSE,FALSE
110,"compatible",12,374,1,"Flowers-Insects IAT","incongruent","ratings first","female",18,15,FALSE,FALSE
110,"compatible",13,1167,0,"Flowers-Insects IAT","incongruent","ratings first","female",18,15,FALSE,FALSE
110,"compatible",14,580,1,"Flowers-Insects IAT","incongruent","ratings first","female",18,15,FALSE,FALSE
110,"compatible",15,470,1,"Flowers-Insects IAT","incongruent","ratings first","female",18,15,FALSE,FALSE
110,"compatible",16,1050,0,"Flowers-Insects IAT","incongruent","ratings first","female",18,15,FALSE,FALSE
110,"compatible",17,553,1,"Flowers-Insects IAT","incongruent","ratings first","female",18,15,FALSE,FALSE
110,"compatible",18,535,1,"Flowers-Insects IAT","incongruent","ratings first","female",18,15,FALSE,FALSE
110,"compatible",19,574,1,"Flowers-Insects IAT","incongruent","ratings first","female",18,15,FALSE,FALSE
110,"compatible",20,518,1,"Flowers-Insects IAT","incongruent","ratings first","female",18,15,FALSE,FALSE
110,"compatible",21,809,0,"Flowers-Insects IAT","incongruent","ratings first","female",18,15,FALSE,FALSE
110,"compatible",22,414,1,"Flowers-Insects IAT","incongruent","ratings first","female",18,15,FALSE,FALSE
110,"compatible",23,383,1,"Flowers-Insects IAT","incongruent","ratings first","female",18,15,FALSE,FALSE
110,"compatible",24,408,1,"Flowers-Insects IAT","incongruent","ratings first","female",18,15,FALSE,FALSE
110,"compatible",25,726,0,"Flowers-Insects IAT","incongruent","ratings first","female",18,15,FALSE,FALSE
110,"compatible",26,506,1,"Flowers-Insects IAT","incongruent","ratings first","female",18,15,FALSE,FALSE
110,"compatible",27,681,0,"Flowers-Insects IAT","incongruent","ratings first","female",18,15,FALSE,FALSE
110,"compatible",28,460,1,"Flowers-Insects IAT","incongruent","ratings first","female",18,15,FALSE,FALSE
110,"compatible",29,428,1,"Flowers-Insects IAT","incongruent","ratings first","female",18,15,FALSE,FALSE
110,"compatible",30,451,1,"Flowers-Insects IAT","incongruent","ratings first","female",18,15,FALSE,FALSE
110,"compatible",31,420,1,"Flowers-Insects IAT","incongruent","ratings first","female",18,15,FALSE,FALSE
110,"compatible",32,442,1,"Flowers-Insects IAT","incongruent","ratings first","female",18,15,FALSE,FALSE
110,"compatible",33,627,0,"Flowers-Insects IAT","incongruent","ratings first","female",18,15,FALSE,FALSE
110,"compatible",34,579,1,"Flowers-Insects IAT","incongruent","ratings first","female",18,15,FALSE,FALSE
110,"compatible",35,575,1,"Flowers-Insects IAT","incongruent","ratings first","female",18,15,FALSE,FALSE
110,"compatible",36,429,1,"Flowers-Insects IAT","incongruent","ratings first","female",18,15,FALSE,FALSE
110,"compatible",37,485,1,"Flowers-Insects IAT","incongruent","ratings first","female",18,15,FALSE,FALSE
110,"compatible",38,518,1,"Flowers-Insects IAT","incongruent","ratings first","female",18,15,FALSE,FALSE
110,"compatible",39,391,1,"Flowers-Insects IAT","incongruent","ratings first","female",18,15,FALSE,FALSE
110,"compatible",40,428,1,"Flowers-Insects IAT","incongruent","ratings first","female",18,15,FALSE,FALSE
110,"compatible",41,359,1,"Flowers-Insects IAT","incongruent","ratings first","female",18,15,FALSE,FALSE
110,"compatible",42,424,1,"Flowers-Insects IAT","incongruent","ratings first","female",18,15,FALSE,FALSE
110,"compatible",43,345,1,"Flowers-Insects IAT","incongruent","ratings first","female",18,15,FALSE,FALSE
110,"compatible",44,426,1,"Flowers-Insects IAT","incongruent","ratings first","female",18,15,FALSE,FALSE
110,"compatible",45,476,1,"Flowers-Insects IAT","incongruent","ratings first","female",18,15,FALSE,FALSE
110,"compatible",46,732,0,"Flowers-Insects IAT","incongruent","ratings first","female",18,15,FALSE,FALSE
110,"compatible",47,500,1,"Flowers-Insects IAT","incongruent","ratings first","female",18,15,FALSE,FALSE
110,"compatible",48,527,1,"Flowers-Insects IAT","incongruent","ratings first","female",18,15,FALSE,FALSE
110,"compatible",49,782,0,"Flowers-Insects IAT","incongruent","ratings first","female",18,15,FALSE,FALSE
110,"compatible",50,562,1,"Flowers-Insects IAT","incongruent","ratings first","female",18,15,FALSE,FALSE
110,"compatible",51,381,1,"Flowers-Insects IAT","incongruent","ratings first","female",18,15,FALSE,FALSE
110,"compatible",52,392,1,"Flowers-Insects IAT","incongruent","ratings first","female",18,15,FALSE,FALSE
110,"compatible",53,387,1,"Flowers-Insects IAT","incongruent","ratings first","female",18,15,FALSE,FALSE
110,"compatible",54,393,1,"Flowers-Insects IAT","incongruent","ratings first","female",18,15,FALSE,FALSE
110,"compatible",55,552,1,"Flowers-Insects IAT","incongruent","ratings first","female",18,15,FALSE,FALSE
110,"compatible",56,463,1,"Flowers-Insects IAT","incongruent","ratings first","female",18,15,FALSE,FALSE
110,"compatible",57,410,1,"Flowers-Insects IAT","incongruent","ratings first","female",18,15,FALSE,FALSE
110,"compatible",58,399,1,"Flowers-Insects IAT","incongruent","ratings first","female",18,15,FALSE,FALSE
110,"compatible",59,400,1,"Flowers-Insects IAT","incongruent","ratings first","female",18,15,FALSE,FALSE
110,"compatible",60,765,0,"Flowers-Insects IAT","incongruent","ratings first","female",18,15,FALSE,FALSE
110,"compatible",61,516,1,"Flowers-Insects IAT","incongruent","ratings first","female",18,15,FALSE,FALSE
110,"compatible",62,375,1,"Flowers-Insects IAT","incongruent","ratings first","female",18,15,FALSE,FALSE
110,"compatible",63,948,0,"Flowers-Insects IAT","incongruent","ratings first","female",18,15,FALSE,FALSE
110,"compatible",64,1066,1,"Flowers-Insects IAT","incongruent","ratings first","female",18,15,FALSE,FALSE
110,"compatible",65,482,1,"Flowers-Insects IAT","incongruent","ratings first","female",18,15,FALSE,FALSE
110,"compatible",66,376,1,"Flowers-Insects IAT","incongruent","ratings first","female",18,15,FALSE,FALSE
110,"compatible",67,359,1,"Flowers-Insects IAT","incongruent","ratings first","female",18,15,FALSE,FALSE
110,"compatible",68,643,0,"Flowers-Insects IAT","incongruent","ratings first","female",18,15,FALSE,FALSE
110,"compatible",69,411,1,"Flowers-Insects IAT","incongruent","ratings first","female",18,15,FALSE,FALSE
110,"compatible",70,950,0,"Flowers-Insects IAT","incongruent","ratings first","female",18,15,FALSE,FALSE
112,"incompatible",1,944,1,"Flowers-Insects IAT","incongruent","SCIAT first","male",35,18,FALSE,FALSE
112,"incompatible",2,590,1,"Flowers-Insects IAT","incongruent","SCIAT first","male",35,18,FALSE,FALSE
112,"incompatible",3,795,0,"Flowers-Insects IAT","incongruent","SCIAT first","male",35,18,FALSE,FALSE
112,"incompatible",4,656,1,"Flowers-Insects IAT","incongruent","SCIAT first","male",35,18,FALSE,FALSE
112,"incompatible",5,930,0,"Flowers-Insects IAT","incongruent","SCIAT first","male",35,18,FALSE,FALSE
112,"incompatible",6,521,1,"Flowers-Insects IAT","incongruent","SCIAT first","male",35,18,FALSE,FALSE
112,"incompatible",7,809,0,"Flowers-Insects IAT","incongruent","SCIAT first","male",35,18,FALSE,FALSE
112,"incompatible",8,1012,0,"Flowers-Insects IAT","incongruent","SCIAT first","male",35,18,FALSE,FALSE
112,"incompatible",9,623,1,"Flowers-Insects IAT","incongruent","SCIAT first","male",35,18,FALSE,FALSE
112,"incompatible",10,611,1,"Flowers-Insects IAT","incongruent","SCIAT first","male",35,18,FALSE,FALSE
112,"incompatible",11,1487,0,"Flowers-Insects IAT","incongruent","SCIAT first","male",35,18,FALSE,FALSE
112,"incompatible",12,614,1,"Flowers-Insects IAT","incongruent","SCIAT first","male",35,18,FALSE,FALSE
112,"incompatible",13,611,1,"Flowers-Insects IAT","incongruent","SCIAT first","male",35,18,FALSE,FALSE
112,"incompatible",14,623,1,"Flowers-Insects IAT","incongruent","SCIAT first","male",35,18,FALSE,FALSE
112,"incompatible",15,675,1,"Flowers-Insects IAT","incongruent","SCIAT first","male",35,18,FALSE,FALSE
112,"incompatible",16,581,1,"Flowers-Insects IAT","incongruent","SCIAT first","male",35,18,FALSE,FALSE
112,"incompatible",17,619,1,"Flowers-Insects IAT","incongruent","SCIAT first","male",35,18,FALSE,FALSE
112,"incompatible",18,646,1,"Flowers-Insects IAT","incongruent","SCIAT first","male",35,18,FALSE,FALSE
112,"incompatible",19,625,1,"Flowers-Insects IAT","incongruent","SCIAT first","male",35,18,FALSE,FALSE
112,"incompatible",20,741,1,"Flowers-Insects IAT","incongruent","SCIAT first","male",35,18,FALSE,FALSE
112,"incompatible",21,596,1,"Flowers-Insects IAT","incongruent","SCIAT first","male",35,18,FALSE,FALSE
112,"incompatible",22,521,1,"Flowers-Insects IAT","incongruent","SCIAT first","male",35,18,FALSE,FALSE
112,"incompatible",23,569,1,"Flowers-Insects IAT","incongruent","SCIAT first","male",35,18,FALSE,FALSE
112,"incompatible",24,495,1,"Flowers-Insects IAT","incongruent","SCIAT first","male",35,18,FALSE,FALSE
112,"incompatible",25,929,0,"Flowers-Insects IAT","incongruent","SCIAT first","male",35,18,FALSE,FALSE
112,"incompatible",26,575,1,"Flowers-Insects IAT","incongruent","SCIAT first","male",35,18,FALSE,FALSE
112,"incompatible",27,573,1,"Flowers-Insects IAT","incongruent","SCIAT first","male",35,18,FALSE,FALSE
112,"incompatible",28,555,1,"Flowers-Insects IAT","incongruent","SCIAT first","male",35,18,FALSE,FALSE
112,"incompatible",29,505,1,"Flowers-Insects IAT","incongruent","SCIAT first","male",35,18,FALSE,FALSE
112,"incompatible",30,954,0,"Flowers-Insects IAT","incongruent","SCIAT first","male",35,18,FALSE,FALSE
112,"incompatible",31,511,1,"Flowers-Insects IAT","incongruent","SCIAT first","male",35,18,FALSE,FALSE
112,"incompatible",32,840,0,"Flowers-Insects IAT","incongruent","SCIAT first","male",35,18,FALSE,FALSE
112,"incompatible",33,690,1,"Flowers-Insects IAT","incongruent","SCIAT first","male",35,18,FALSE,FALSE
112,"incompatible",34,491,1,"Flowers-Insects IAT","incongruent","SCIAT first","male",35,18,FALSE,FALSE
112,"incompatible",35,412,1,"Flowers-Insects IAT","incongruent","SCIAT first","male",35,18,FALSE,FALSE
112,"incompatible",36,640,1,"Flowers-Insects IAT","incongruent","SCIAT first","male",35,18,FALSE,FALSE
112,"incompatible",37,556,1,"Flowers-Insects IAT","incongruent","SCIAT first","male",35,18,FALSE,FALSE
112,"incompatible",38,555,1,"Flowers-Insects IAT","incongruent","SCIAT first","male",35,18,FALSE,FALSE
112,"incompatible",39,569,1,"Flowers-Insects IAT","incongruent","SCIAT first","male",35,18,FALSE,FALSE
112,"incompatible",40,655,1,"Flowers-Insects IAT","incongruent","SCIAT first","male",35,18,FALSE,FALSE
112,"incompatible",41,834,1,"Flowers-Insects IAT","incongruent","SCIAT first","male",35,18,FALSE,FALSE
112,"incompatible",42,764,1,"Flowers-Insects IAT","incongruent","SCIAT first","male",35,18,FALSE,FALSE
112,"incompatible",43,1010,0,"Flowers-Insects IAT","incongruent","SCIAT first","male",35,18,FALSE,FALSE
112,"incompatible",44,662,1,"Flowers-Insects IAT","incongruent","SCIAT first","male",35,18,FALSE,FALSE
112,"incompatible",45,560,1,"Flowers-Insects IAT","incongruent","SCIAT first","male",35,18,FALSE,FALSE
112,"incompatible",46,719,1,"Flowers-Insects IAT","incongruent","SCIAT first","male",35,18,FALSE,FALSE
112,"incompatible",47,534,1,"Flowers-Insects IAT","incongruent","SCIAT first","male",35,18,FALSE,FALSE
112,"incompatible",48,653,1,"Flowers-Insects IAT","incongruent","SCIAT first","male",35,18,FALSE,FALSE
112,"incompatible",49,1016,0,"Flowers-Insects IAT","incongruent","SCIAT first","male",35,18,FALSE,FALSE
112,"incompatible",50,515,1,"Flowers-Insects IAT","incongruent","SCIAT first","male",35,18,FALSE,FALSE
112,"incompatible",51,564,1,"Flowers-Insects IAT","incongruent","SCIAT first","male",35,18,FALSE,FALSE
112,"incompatible",52,522,1,"Flowers-Insects IAT","incongruent","SCIAT first","male",35,18,FALSE,FALSE
112,"incompatible",53,842,0,"Flowers-Insects IAT","incongruent","SCIAT first","male",35,18,FALSE,FALSE
112,"incompatible",54,860,0,"Flowers-Insects IAT","incongruent","SCIAT first","male",35,18,FALSE,FALSE
112,"incompatible",55,845,1,"Flowers-Insects IAT","incongruent","SCIAT first","male",35,18,FALSE,FALSE
112,"incompatible",56,608,1,"Flowers-Insects IAT","incongruent","SCIAT first","male",35,18,FALSE,FALSE
112,"incompatible",57,1117,0,"Flowers-Insects IAT","incongruent","SCIAT first","male",35,18,FALSE,FALSE
112,"incompatible",58,627,1,"Flowers-Insects IAT","incongruent","SCIAT first","male",35,18,FALSE,FALSE
112,"incompatible",59,1279,0,"Flowers-Insects IAT","incongruent","SCIAT first","male",35,18,FALSE,FALSE
112,"incompatible",60,1071,1,"Flowers-Insects IAT","incongruent","SCIAT first","male",35,18,FALSE,FALSE
112,"incompatible",61,600,1,"Flowers-Insects IAT","incongruent","SCIAT first","male",35,18,FALSE,FALSE
112,"incompatible",62,573,1,"Flowers-Insects IAT","incongruent","SCIAT first","male",35,18,FALSE,FALSE
112,"incompatible",63,635,1,"Flowers-Insects IAT","incongruent","SCIAT first","male",35,18,FALSE,FALSE
112,"incompatible",64,494,1,"Flowers-Insects IAT","incongruent","SCIAT first","male",35,18,FALSE,FALSE
112,"incompatible",65,591,1,"Flowers-Insects IAT","incongruent","SCIAT first","male",35,18,FALSE,FALSE
112,"incompatible",66,820,1,"Flowers-Insects IAT","incongruent","SCIAT first","male",35,18,FALSE,FALSE
112,"incompatible",67,576,1,"Flowers-Insects IAT","incongruent","SCIAT first","male",35,18,FALSE,FALSE
112,"incompatible",68,758,1,"Flowers-Insects IAT","incongruent","SCIAT first","male",35,18,FALSE,FALSE
112,"incompatible",69,1060,0,"Flowers-Insects IAT","incongruent","SCIAT first","male",35,18,FALSE,FALSE
112,"incompatible",70,1341,0,"Flowers-Insects IAT","incongruent","SCIAT first","male",35,18,FALSE,FALSE
112,"compatible",1,906,1,"Flowers-Insects IAT","incongruent","SCIAT first","male",35,18,FALSE,FALSE
112,"compatible",2,1122,0,"Flowers-Insects IAT","incongruent","SCIAT first","male",35,18,FALSE,FALSE
112,"compatible",3,1097,0,"Flowers-Insects IAT","incongruent","SCIAT first","male",35,18,FALSE,FALSE
112,"compatible",4,456,1,"Flowers-Insects IAT","incongruent","SCIAT first","male",35,18,FALSE,FALSE
112,"compatible",5,563,1,"Flowers-Insects IAT","incongruent","SCIAT first","male",35,18,FALSE,FALSE
112,"compatible",6,482,1,"Flowers-Insects IAT","incongruent","SCIAT first","male",35,18,FALSE,FALSE
112,"compatible",7,700,1,"Flowers-Insects IAT","incongruent","SCIAT first","male",35,18,FALSE,FALSE
112,"compatible",8,645,1,"Flowers-Insects IAT","incongruent","SCIAT first","male",35,18,FALSE,FALSE
112,"compatible",9,1120,0,"Flowers-Insects IAT","incongruent","SCIAT first","male",35,18,FALSE,FALSE
112,"compatible",10,1342,0,"Flowers-Insects IAT","incongruent","SCIAT first","male",35,18,FALSE,FALSE
112,"compatible",11,979,0,"Flowers-Insects IAT","incongruent","SCIAT first","male",35,18,FALSE,FALSE
112,"compatible",12,551,1,"Flowers-Insects IAT","incongruent","SCIAT first","male",35,18,FALSE,FALSE
112,"compatible",13,758,1,"Flowers-Insects IAT","incongruent","SCIAT first","male",35,18,FALSE,FALSE
112,"compatible",14,628,1,"Flowers-Insects IAT","incongruent","SCIAT first","male",35,18,FALSE,FALSE
112,"compatible",15,608,1,"Flowers-Insects IAT","incongruent","SCIAT first","male",35,18,FALSE,FALSE
112,"compatible",16,493,1,"Flowers-Insects IAT","incongruent","SCIAT first","male",35,18,FALSE,FALSE
112,"compatible",17,590,1,"Flowers-Insects IAT","incongruent","SCIAT first","male",35,18,FALSE,FALSE
112,"compatible",18,643,1,"Flowers-Insects IAT","incongruent","SCIAT first","male",35,18,FALSE,FALSE
112,"compatible",19,510,1,"Flowers-Insects IAT","incongruent","SCIAT first","male",35,18,FALSE,FALSE
112,"compatible",20,607,1,"Flowers-Insects IAT","incongruent","SCIAT first","male",35,18,FALSE,FALSE
112,"compatible",21,555,1,"Flowers-Insects IAT","incongruent","SCIAT first","male",35,18,FALSE,FALSE
112,"compatible",22,482,1,"Flowers-Insects IAT","incongruent","SCIAT first","male",35,18,FALSE,FALSE
112,"compatible",23,652,1,"Flowers-Insects IAT","incongruent","SCIAT first","male",35,18,FALSE,FALSE
112,"compatible",24,510,1,"Flowers-Insects IAT","incongruent","SCIAT first","male",35,18,FALSE,FALSE
112,"compatible",25,679,1,"Flowers-Insects IAT","incongruent","SCIAT first","male",35,18,FALSE,FALSE
112,"compatible",26,1009,0,"Flowers-Insects IAT","incongruent","SCIAT first","male",35,18,FALSE,FALSE
112,"compatible",27,1524,0,"Flowers-Insects IAT","incongruent","SCIAT first","male",35,18,FALSE,FALSE
112,"compatible",28,833,0,"Flowers-Insects IAT","incongruent","SCIAT first","male",35,18,FALSE,FALSE
112,"compatible",29,675,1,"Flowers-Insects IAT","incongruent","SCIAT first","male",35,18,FALSE,FALSE
112,"compatible",30,637,1,"Flowers-Insects IAT","incongruent","SCIAT first","male",35,18,FALSE,FALSE
112,"compatible",31,592,1,"Flowers-Insects IAT","incongruent","SCIAT first","male",35,18,FALSE,FALSE
112,"compatible",32,605,1,"Flowers-Insects IAT","incongruent","SCIAT first","male",35,18,FALSE,FALSE
112,"compatible",33,506,1,"Flowers-Insects IAT","incongruent","SCIAT first","male",35,18,FALSE,FALSE
112,"compatible",34,498,1,"Flowers-Insects IAT","incongruent","SCIAT first","male",35,18,FALSE,FALSE
112,"compatible",35,532,1,"Flowers-Insects IAT","incongruent","SCIAT first","male",35,18,FALSE,FALSE
112,"compatible",36,604,1,"Flowers-Insects IAT","incongruent","SCIAT first","male",35,18,FALSE,FALSE
112,"compatible",37,984,0,"Flowers-Insects IAT","incongruent","SCIAT first","male",35,18,FALSE,FALSE
112,"compatible",38,876,1,"Flowers-Insects IAT","incongruent","SCIAT first","male",35,18,FALSE,FALSE
112,"compatible",39,1182,0,"Flowers-Insects IAT","incongruent","SCIAT first","male",35,18,FALSE,FALSE
112,"compatible",40,1146,1,"Flowers-Insects IAT","incongruent","SCIAT first","male",35,18,FALSE,FALSE
112,"compatible",41,720,1,"Flowers-Insects IAT","incongruent","SCIAT first","male",35,18,FALSE,FALSE
112,"compatible",42,727,1,"Flowers-Insects IAT","incongruent","SCIAT first","male",35,18,FALSE,FALSE
112,"compatible",43,543,1,"Flowers-Insects IAT","incongruent","SCIAT first","male",35,18,FALSE,FALSE
112,"compatible",44,782,1,"Flowers-Insects IAT","incongruent","SCIAT first","male",35,18,FALSE,FALSE
112,"compatible",45,740,1,"Flowers-Insects IAT","incongruent","SCIAT first","male",35,18,FALSE,FALSE
112,"compatible",46,763,1,"Flowers-Insects IAT","incongruent","SCIAT first","male",35,18,FALSE,FALSE
112,"compatible",47,1089,1,"Flowers-Insects IAT","incongruent","SCIAT first","male",35,18,FALSE,FALSE
112,"compatible",48,617,1,"Flowers-Insects IAT","incongruent","SCIAT first","male",35,18,FALSE,FALSE
112,"compatible",49,581,1,"Flowers-Insects IAT","incongruent","SCIAT first","male",35,18,FALSE,FALSE
112,"compatible",50,675,1,"Flowers-Insects IAT","incongruent","SCIAT first","male",35,18,FALSE,FALSE
112,"compatible",51,540,1,"Flowers-Insects IAT","incongruent","SCIAT first","male",35,18,FALSE,FALSE
112,"compatible",52,572,1,"Flowers-Insects IAT","incongruent","SCIAT first","male",35,18,FALSE,FALSE
112,"compatible",53,493,1,"Flowers-Insects IAT","incongruent","SCIAT first","male",35,18,FALSE,FALSE
112,"compatible",54,1003,0,"Flowers-Insects IAT","incongruent","SCIAT first","male",35,18,FALSE,FALSE
112,"compatible",55,654,1,"Flowers-Insects IAT","incongruent","SCIAT first","male",35,18,FALSE,FALSE
112,"compatible",56,512,1,"Flowers-Insects IAT","incongruent","SCIAT first","male",35,18,FALSE,FALSE
112,"compatible",57,881,0,"Flowers-Insects IAT","incongruent","SCIAT first","male",35,18,FALSE,FALSE
112,"compatible",58,578,1,"Flowers-Insects IAT","incongruent","SCIAT first","male",35,18,FALSE,FALSE
112,"compatible",59,1015,0,"Flowers-Insects IAT","incongruent","SCIAT first","male",35,18,FALSE,FALSE
112,"compatible",60,1091,0,"Flowers-Insects IAT","incongruent","SCIAT first","male",35,18,FALSE,FALSE
112,"compatible",61,706,0,"Flowers-Insects IAT","incongruent","SCIAT first","male",35,18,FALSE,FALSE
112,"compatible",62,532,1,"Flowers-Insects IAT","incongruent","SCIAT first","male",35,18,FALSE,FALSE
112,"compatible",63,618,1,"Flowers-Insects IAT","incongruent","SCIAT first","male",35,18,FALSE,FALSE
112,"compatible",64,678,1,"Flowers-Insects IAT","incongruent","SCIAT first","male",35,18,FALSE,FALSE
112,"compatible",65,888,0,"Flowers-Insects IAT","incongruent","SCIAT first","male",35,18,FALSE,FALSE
112,"compatible",66,1327,0,"Flowers-Insects IAT","incongruent","SCIAT first","male",35,18,FALSE,FALSE
112,"compatible",67,645,1,"Flowers-Insects IAT","incongruent","SCIAT first","male",35,18,FALSE,FALSE
112,"compatible",68,504,1,"Flowers-Insects IAT","incongruent","SCIAT first","male",35,18,FALSE,FALSE
112,"compatible",69,673,1,"Flowers-Insects IAT","incongruent","SCIAT first","male",35,18,FALSE,FALSE
112,"compatible",70,594,1,"Flowers-Insects IAT","incongruent","SCIAT first","male",35,18,FALSE,FALSE
113,"compatible",1,717,1,"Race IAT","congruent","ratings first","female",21,13,FALSE,FALSE
113,"compatible",2,674,1,"Race IAT","congruent","ratings first","female",21,13,FALSE,FALSE
113,"compatible",3,719,1,"Race IAT","congruent","ratings first","female",21,13,FALSE,FALSE
113,"compatible",4,552,1,"Race IAT","congruent","ratings first","female",21,13,FALSE,FALSE
113,"compatible",5,561,1,"Race IAT","congruent","ratings first","female",21,13,FALSE,FALSE
113,"compatible",6,502,1,"Race IAT","congruent","ratings first","female",21,13,FALSE,FALSE
113,"compatible",7,597,1,"Race IAT","congruent","ratings first","female",21,13,FALSE,FALSE
113,"compatible",8,558,1,"Race IAT","congruent","ratings first","female",21,13,FALSE,FALSE
113,"compatible",9,608,1,"Race IAT","congruent","ratings first","female",21,13,FALSE,FALSE
113,"compatible",10,478,1,"Race IAT","congruent","ratings first","female",21,13,FALSE,FALSE
113,"compatible",11,793,1,"Race IAT","congruent","ratings first","female",21,13,FALSE,FALSE
113,"compatible",12,488,1,"Race IAT","congruent","ratings first","female",21,13,FALSE,FALSE
113,"compatible",13,629,1,"Race IAT","congruent","ratings first","female",21,13,FALSE,FALSE
113,"compatible",14,670,1,"Race IAT","congruent","ratings first","female",21,13,FALSE,FALSE
113,"compatible",15,627,1,"Race IAT","congruent","ratings first","female",21,13,FALSE,FALSE
113,"compatible",16,628,1,"Race IAT","congruent","ratings first","female",21,13,FALSE,FALSE
113,"compatible",17,503,1,"Race IAT","congruent","ratings first","female",21,13,FALSE,FALSE
113,"compatible",18,567,1,"Race IAT","congruent","ratings first","female",21,13,FALSE,FALSE
113,"compatible",19,461,1,"Race IAT","congruent","ratings first","female",21,13,FALSE,FALSE
113,"compatible",20,573,1,"Race IAT","congruent","ratings first","female",21,13,FALSE,FALSE
113,"compatible",21,622,1,"Race IAT","congruent","ratings first","female",21,13,FALSE,FALSE
113,"compatible",22,522,1,"Race IAT","congruent","ratings first","female",21,13,FALSE,FALSE
113,"compatible",23,501,1,"Race IAT","congruent","ratings first","female",21,13,FALSE,FALSE
113,"compatible",24,855,1,"Race IAT","congruent","ratings first","female",21,13,FALSE,FALSE
113,"compatible",25,670,1,"Race IAT","congruent","ratings first","female",21,13,FALSE,FALSE
113,"compatible",26,440,1,"Race IAT","congruent","ratings first","female",21,13,FALSE,FALSE
113,"compatible",27,665,1,"Race IAT","congruent","ratings first","female",21,13,FALSE,FALSE
113,"compatible",28,485,1,"Race IAT","congruent","ratings first","female",21,13,FALSE,FALSE
113,"compatible",29,508,1,"Race IAT","congruent","ratings first","female",21,13,FALSE,FALSE
113,"compatible",30,612,1,"Race IAT","congruent","ratings first","female",21,13,FALSE,FALSE
113,"compatible",31,556,1,"Race IAT","congruent","ratings first","female",21,13,FALSE,FALSE
113,"compatible",32,564,1,"Race IAT","congruent","ratings first","female",21,13,FALSE,FALSE
113,"compatible",33,536,1,"Race IAT","congruent","ratings first","female",21,13,FALSE,FALSE
113,"compatible",34,493,1,"Race IAT","congruent","ratings first","female",21,13,FALSE,FALSE
