"participant","block_n","trial_n","task","item","response","accuracy","rt"
"10","1","1","debriefing","debriefing","57","0","28900"
"10","1","1","demographics","age","18","1","5749"
"10","1","2","demographics","gender","Male","1","4426"
"10","1","2","targetincompatiblepractice","targetAright","23","1","1964"
"10","1","3","targetincompatiblepractice","targetBleft","18","1","1251"
"10","1","4","targetincompatiblepractice","targetAright","23","1","1639"
"10","1","5","targetincompatiblepractice","targetAright","23","1","947"
"10","1","6","targetincompatiblepractice","targetBleft","18","1","635"
"10","1","7","targetincompatiblepractice","targetAright","23","1","1430"
"10","1","8","targetincompatiblepractice","targetBleft","18","1","635"
"10","1","9","targetincompatiblepractice","targetBleft","18","1","631"
"10","1","10","targetincompatiblepractice","targetBleft","18","1","516"
"10","1","11","targetincompatiblepractice","targetAright","23","1","612"
"10","1","12","targetincompatiblepractice","targetBleft","18","1","537"
"10","1","13","targetincompatiblepractice","targetBleft","18","1","545"
"10","1","14","targetincompatiblepractice","targetAright","23","0","1721"
"10","1","15","targetincompatiblepractice","targetBleft","18","1","602"
"10","1","16","targetincompatiblepractice","targetBleft","18","1","639"
"10","1","17","targetincompatiblepractice","targetBleft","18","1","586"
"10","1","18","targetincompatiblepractice","targetAright","23","1","576"
"10","1","19","targetincompatiblepractice","targetAright","23","1","863"
"10","1","20","targetincompatiblepractice","targetAright","23","1","946"
"10","1","21","targetincompatiblepractice","targetAright","23","1","962"
"10","2","2","attributepractice","attributeA","18","1","1305"
"10","2","3","attributepractice","attributeB","23","1","1130"
"10","2","4","attributepractice","attributeA","18","1","962"
"10","2","5","attributepractice","attributeB","23","1","698"
"10","2","6","attributepractice","attributeA","18","1","692"
"10","2","7","attributepractice","attributeB","23","1","861"
"10","2","8","attributepractice","attributeB","23","1","977"
"10","2","9","attributepractice","attributeA","18","1","1031"
"10","2","10","attributepractice","attributeA","18","1","1004"
"10","2","11","attributepractice","attributeB","23","1","673"
"10","2","12","attributepractice","attributeA","18","1","908"
"10","2","13","attributepractice","attributeA","18","1","877"
"10","2","14","attributepractice","attributeB","23","1","1544"
"10","2","15","attributepractice","attributeB","23","1","688"
"10","2","16","attributepractice","attributeB","23","1","1009"
"10","2","17","attributepractice","attributeA","18","1","2742"
"10","2","18","attributepractice","attributeA","18","1","2982"
"10","2","19","attributepractice","attributeB","23","1","773"
"10","2","20","attributepractice","attributeB","23","1","628"
"10","2","21","attributepractice","attributeA","18","1","896"
"10","3","2","incompatibletest1","attributeA","18","1","1413"
"10","3","3","incompatibletest1","targetAright","23","1","1034"
"10","3","4","incompatibletest1","attributeB","23","1","3414"
"10","3","5","incompatibletest1","targetAright","23","1","1315"
"10","3","6","incompatibletest1","attributeA","18","1","892"
"10","3","7","incompatibletest1","targetBleft","18","1","750"
"10","3","8","incompatibletest1","attributeA","18","1","1373"
"10","3","9","incompatibletest1","targetAright","23","1","2219"
"10","3","10","incompatibletest1","attributeB","23","1","680"
"10","3","11","incompatibletest1","targetBleft","18","1","843"
"10","3","12","incompatibletest1","attributeB","23","1","1071"
"10","3","13","incompatibletest1","targetBleft","18","0","1329"
"10","3","14","incompatibletest1","attributeB","23","1","2098"
"10","3","15","incompatibletest1","targetAright","23","1","691"
"10","3","16","incompatibletest1","attributeB","23","1","845"
"10","3","17","incompatibletest1","targetBleft","18","1","649"
"10","3","18","incompatibletest1","attributeA","18","1","1037"
"10","3","19","incompatibletest1","targetBleft","18","1","760"
"10","3","20","incompatibletest1","attributeA","18","1","992"
"10","3","21","incompatibletest1","targetAright","23","1","638"
"10","5","1","incompatibletest2","attributeB","23","1","845"
"10","5","2","incompatibletest2","targetBleft","18","1","577"
"10","5","3","incompatibletest2","attributeB","23","1","2368"
"10","5","4","incompatibletest2","targetBleft","18","0","1750"
"10","5","5","incompatibletest2","attributeA","18","1","2820"
"10","5","6","incompatibletest2","targetBleft","18","1","3841"
"10","5","7","incompatibletest2","attributeB","23","1","861"
"10","5","8","incompatibletest2","targetAright","23","0","1296"
"10","5","9","incompatibletest2","attributeB","23","0","1345"
"10","5","10","incompatibletest2","targetAright","23","1","761"
"10","5","11","incompatibletest2","attributeB","23","1","624"
"10","5","12","incompatibletest2","targetBleft","18","1","1012"
"10","5","13","incompatibletest2","attributeA","18","1","2890"
"10","5","14","incompatibletest2","targetBleft","18","1","819"
"10","5","15","incompatibletest2","attributeB","23","1","9040"
"10","5","16","incompatibletest2","targetAright","23","1","683"
"10","5","17","incompatibletest2","attributeA","18","1","701"
"10","5","18","incompatibletest2","targetAright","23","0","1006"
"10","5","19","incompatibletest2","attributeA","18","1","4019"
"10","5","20","incompatibletest2","targetAright","23","1","768"
"10","5","21","incompatibletest2","attributeA","18","1","854"
"10","5","22","incompatibletest2","targetAright","23","0","1833"
"10","5","23","incompatibletest2","attributeA","18","1","1172"
"10","5","24","incompatibletest2","targetBleft","18","1","1099"
"10","5","25","incompatibletest2","attributeA","18","1","797"
"10","5","26","incompatibletest2","targetBleft","18","1","899"
"10","5","27","incompatibletest2","attributeB","23","1","1381"
"10","5","28","incompatibletest2","targetAright","23","1","427"
"10","5","29","incompatibletest2","attributeA","18","1","1656"
"10","5","30","incompatibletest2","targetBleft","18","1","860"
"10","5","31","incompatibletest2","attributeA","18","1","670"
"10","5","32","incompatibletest2","targetBleft","18","1","449"
"10","5","33","incompatibletest2","attributeA","18","1","356"
"10","5","34","incompatibletest2","targetAright","23","0","723"
"10","5","35","incompatibletest2","attributeB","23","1","956"
"10","5","36","incompatibletest2","targetAright","23","1","619"
"10","5","37","incompatibletest2","attributeB","23","1","879"
"10","5","38","incompatibletest2","targetAright","23","1","346"
"10","5","39","incompatibletest2","attributeB","23","1","434"
"10","5","40","incompatibletest2","targetBleft","18","0","734"
"10","6","2","targetcompatiblepractice","targetBright","23","0","2054"
"10","6","3","targetcompatiblepractice","targetBright","23","1","760"
"10","6","4","targetcompatiblepractice","targetBright","23","1","1016"
"10","6","5","targetcompatiblepractice","targetAleft","18","1","812"
"10","6","6","targetcompatiblepractice","targetBright","23","1","626"
"10","6","7","targetcompatiblepractice","targetBright","23","1","678"
"10","6","8","targetcompatiblepractice","targetAleft","18","1","657"
"10","6","9","targetcompatiblepractice","targetAleft","18","1","780"
"10","6","10","targetcompatiblepractice","targetAleft","18","1","579"
"10","6","11","targetcompatiblepractice","targetAleft","18","1","457"
"10","6","12","targetcompatiblepractice","targetAleft","18","1","485"
"10","6","13","targetcompatiblepractice","targetBright","23","1","614"
"10","6","14","targetcompatiblepractice","targetAleft","18","1","540"
"10","6","15","targetcompatiblepractice","targetAleft","18","1","500"
"10","6","16","targetcompatiblepractice","targetBright","23","1","573"
"10","6","17","targetcompatiblepractice","targetBright","23","1","580"
"10","6","18","targetcompatiblepractice","targetBright","23","1","539"
"10","6","19","targetcompatiblepractice","targetAleft","18","1","514"
"10","6","20","targetcompatiblepractice","targetAleft","18","0","1012"
"10","6","21","targetcompatiblepractice","targetBright","23","1","593"
"10","7","2","compatibletest1","attributeB","23","1","1104"
"10","7","3","compatibletest1","targetAleft","18","1","1457"
"10","7","4","compatibletest1","attributeA","18","1","1589"
"10","7","5","compatibletest1","targetBright","23","1","962"
"10","7","6","compatibletest1","attributeB","23","1","746"
"10","7","7","compatibletest1","targetAleft","18","1","737"
"10","7","8","compatibletest1","attributeA","18","1","753"
"10","7","9","compatibletest1","targetBright","23","1","649"
"10","7","10","compatibletest1","attributeB","23","1","1508"
"10","7","11","compatibletest1","targetAleft","18","1","717"
"10","7","12","compatibletest1","attributeA","18","1","670"
"10","7","13","compatibletest1","targetBright","23","1","689"
"10","7","14","compatibletest1","attributeA","18","1","1050"
"10","7","15","compatibletest1","targetBright","23","1","1174"
"10","7","16","compatibletest1","attributeA","18","1","956"
"10","7","17","compatibletest1","targetBright","23","1","1259"
"10","7","18","compatibletest1","attributeB","23","1","3278"
"10","7","19","compatibletest1","targetAleft","18","1","1193"
"10","7","20","compatibletest1","attributeB","23","1","895"
"10","7","21","compatibletest1","targetAleft","18","1","713"
"10","9","1","compatibletest2","attributeA","18","1","1986"
"10","9","2","compatibletest2","targetBright","23","1","623"
"10","9","3","compatibletest2","attributeB","23","1","1828"
"10","9","4","compatibletest2","targetBright","23","1","576"
"10","9","5","compatibletest2","attributeB","23","1","935"
"10","9","6","compatibletest2","targetBright","23","1","503"
"10","9","7","compatibletest2","attributeB","23","1","592"
"10","9","8","compatibletest2","targetAleft","18","1","790"
"10","9","9","compatibletest2","attributeB","23","1","716"
"10","9","10","compatibletest2","targetBright","23","1","1005"
"10","9","11","compatibletest2","attributeA","18","1","2818"
"10","9","12","compatibletest2","targetBright","23","1","998"
"10","9","13","compatibletest2","attributeA","18","1","620"
"10","9","14","compatibletest2","targetBright","23","1","665"
"10","9","15","compatibletest2","attributeA","18","1","764"
"10","9","16","compatibletest2","targetBright","23","1","531"
"10","9","17","compatibletest2","attributeA","18","1","772"
"10","9","18","compatibletest2","targetBright","23","1","843"
"10","9","19","compatibletest2","attributeB","23","1","406"
"10","9","20","compatibletest2","targetAleft","18","1","740"
"10","9","21","compatibletest2","attributeA","18","1","740"
"10","9","22","compatibletest2","targetAleft","18","1","1004"
"10","9","23","compatibletest2","attributeB","23","1","841"
"10","9","24","compatibletest2","targetAleft","18","1","685"
"10","9","25","compatibletest2","attributeB","23","1","519"
"10","9","26","compatibletest2","targetAleft","18","1","887"
"10","9","27","compatibletest2","attributeA","18","1","657"
"10","9","28","compatibletest2","targetAleft","18","1","621"
"10","9","29","compatibletest2","attributeA","18","1","761"
"10","9","30","compatibletest2","targetAleft","18","1","592"
"10","9","31","compatibletest2","attributeB","23","1","654"
"10","9","32","compatibletest2","targetAleft","18","1","554"
"10","9","33","compatibletest2","attributeB","23","1","625"
"10","9","34","compatibletest2","targetAleft","18","1","613"
"10","9","35","compatibletest2","attributeB","23","1","875"
"10","9","36","compatibletest2","targetBright","23","1","781"
"10","9","37","compatibletest2","attributeA","18","1","692"
"10","9","38","compatibletest2","targetBright","23","1","694"
"10","9","39","compatibletest2","attributeA","18","1","624"
"10","9","40","compatibletest2","targetAleft","18","1","1188"
"10","1","1","racism_scale","likert_scale","5",NA,NA
"10","1","2","racism_scale","likert_scale","2",NA,NA
"10","1","3","racism_scale","likert_scale","4",NA,NA
"10","1","4","racism_scale","likert_scale","5",NA,NA
"10","1","5","racism_scale","likert_scale","1",NA,NA
"10","1","6","racism_scale","likert_scale","3",NA,NA
"10","1","7","racism_scale","likert_scale","4",NA,NA
"10","1","1","ratings","images","4",NA,NA
"10","1","2","ratings","images","4",NA,NA
"10","1","3","ratings","images","4",NA,NA
"10","1","4","ratings","images","4",NA,NA
"10","1","5","ratings","images","4",NA,NA
"10","1","6","ratings","images","4",NA,NA
"10","1","2","practice_incompatibletest","attributeB","23","1","1493"
"10","1","3","practice_incompatibletest","attributeA","18","1","703"
"10","1","4","practice_incompatibletest","attributeA","18","1","553"
"10","1","5","practice_incompatibletest","attributeB","23","1","609"
"10","1","6","practice_incompatibletest","attributeB","23","0","1143"
"10","1","7","practice_incompatibletest","attributeA","18","1","575"
"10","1","8","practice_incompatibletest","attributeB","23","1","822"
"10","1","9","practice_incompatibletest","attributeA","18","1","611"
"10","1","10","practice_incompatibletest","attributeB","23","1","817"
"10","1","11","practice_incompatibletest","attributeA","18","1","575"
"10","3","1","incompatibletest","attributeA","18","1","736"
"10","3","2","incompatibletest","attributeB","23","1","720"
"10","3","3","incompatibletest","attributeA","18","1","642"
"10","3","4","incompatibletest","targetAright","23","1","535"
"10","3","5","incompatibletest","attributeB","23","0","1327"
"10","3","6","incompatibletest","attributeA","18","1","615"
"10","3","7","incompatibletest","targetAright","23","1","598"
"10","3","8","incompatibletest","attributeA","18","1","580"
"10","3","9","incompatibletest","attributeA","18","1","667"
"10","3","10","incompatibletest","targetAright","23","1","551"
"10","3","11","incompatibletest","attributeA","18","1","534"
"10","3","12","incompatibletest","attributeB","23","1","591"
"10","3","13","incompatibletest","targetAright","23","1","718"
"10","3","14","incompatibletest","attributeB","23","0","895"
"10","3","15","incompatibletest","attributeB","23","0","1161"
"10","3","16","incompatibletest","attributeA","18","1","1152"
"10","3","17","incompatibletest","targetAright","23","1","624"
"10","3","18","incompatibletest","attributeB","23","1","949"
"10","3","19","incompatibletest","targetAright","23","1","645"
"10","3","20","incompatibletest","attributeA","18","1","674"
"10","3","21","incompatibletest","targetAright","23","1","741"
"10","3","22","incompatibletest","attributeA","18","1","702"
"10","3","23","incompatibletest","attributeB","23","1","1120"
"10","3","24","incompatibletest","attributeA","18","1","937"
"10","3","25","incompatibletest","targetAright","23","1","618"
"10","3","26","incompatibletest","attributeA","18","1","822"
"10","3","27","incompatibletest","targetAright","23","1","516"
"10","3","28","incompatibletest","attributeA","18","1","661"
"10","3","29","incompatibletest","attributeB","23","1","617"
"10","3","30","incompatibletest","attributeB","23","1","903"
"10","3","31","incompatibletest","attributeA","18","1","609"
"10","3","32","incompatibletest","attributeA","18","1","606"
"10","3","33","incompatibletest","attributeA","18","1","604"
"10","3","34","incompatibletest","targetAright","23","1","554"
"10","3","35","incompatibletest","targetAright","23","1","538"
"10","3","36","incompatibletest","attributeA","18","1","531"
"10","3","37","incompatibletest","targetAright","23","1","540"
"10","3","38","incompatibletest","attributeA","18","1","461"
"10","3","39","incompatibletest","attributeB","23","1","457"
"10","3","40","incompatibletest","attributeB","23","1","613"
"10","3","41","incompatibletest","targetAright","23","0","891"
"10","3","42","incompatibletest","targetAright","23","1","460"
"10","3","43","incompatibletest","targetAright","23","1","384"
"10","3","44","incompatibletest","attributeB","23","0","1231"
"10","3","45","incompatibletest","attributeA","18","1","612"
"10","3","46","incompatibletest","attributeA","18","1","858"
"10","3","47","incompatibletest","attributeB","23","1","621"
"10","3","48","incompatibletest","attributeB","23","1","651"
"10","3","49","incompatibletest","attributeB","23","1","526"
"10","3","50","incompatibletest","attributeA","18","1","552"
"10","3","51","incompatibletest","targetAright","23","1","536"
"10","3","52","incompatibletest","attributeB","23","1","544"
"10","3","53","incompatibletest","attributeA","18","1","577"
"10","3","54","incompatibletest","attributeA","18","1","688"
"10","3","55","incompatibletest","attributeA","18","1","867"
"10","3","56","incompatibletest","targetAright","23","1","558"
"10","3","57","incompatibletest","targetAright","23","1","566"
"10","3","58","incompatibletest","attributeA","18","1","533"
"10","3","59","incompatibletest","attributeA","18","0","886"
"10","3","60","incompatibletest","attributeA","18","1","928"
"10","3","61","incompatibletest","attributeA","18","1","657"
"10","3","62","incompatibletest","attributeA","18","1","685"
"10","3","63","incompatibletest","attributeA","18","1","608"
"10","3","64","incompatibletest","attributeB","23","1","614"
"10","3","65","incompatibletest","targetAright","23","1","460"
"10","3","66","incompatibletest","attributeB","23","1","583"
"10","3","67","incompatibletest","attributeA","18","0","846"
"10","3","68","incompatibletest","attributeB","23","1","538"
"10","3","69","incompatibletest","attributeB","23","0","931"
"10","3","70","incompatibletest","targetAright","23","1","547"
"10","5","1","compatibletest","attributeB","23","1","1225"
"10","5","2","compatibletest","attributeA","18","1","742"
"10","5","3","compatibletest","attributeA","18","1","678"
"10","5","4","compatibletest","attributeA","18","1","706"
"10","5","5","compatibletest","attributeA","18","1","692"
"10","5","6","compatibletest","attributeB","23","1","1014"
"10","5","7","compatibletest","attributeA","18","1","692"
"10","5","8","compatibletest","attributeB","23","1","1655"
"10","5","9","compatibletest","attributeA","18","1","667"
"10","5","10","compatibletest","targetAleft","18","1","966"
"10","5","11","compatibletest","attributeB","23","1","1278"
"10","5","12","compatibletest","targetAleft","18","1","881"
"10","5","13","compatibletest","attributeA","18","1","1140"
"10","5","14","compatibletest","attributeA","18","1","573"
"10","5","15","compatibletest","attributeB","23","1","1148"
"10","5","16","compatibletest","attributeB","23","1","532"
"10","5","17","compatibletest","attributeB","23","1","573"
"10","5","18","compatibletest","attributeA","18","1","748"
"10","5","19","compatibletest","attributeB","23","1","549"
"10","5","20","compatibletest","attributeB","23","0","1381"
"10","5","21","compatibletest","targetAleft","18","1","892"
"10","5","22","compatibletest","targetAleft","18","1","478"
"10","5","23","compatibletest","attributeB","23","1","1009"
"10","5","24","compatibletest","attributeA","18","1","615"
"10","5","25","compatibletest","attributeB","23","1","685"
"10","5","26","compatibletest","attributeB","23","1","959"
"10","5","27","compatibletest","attributeA","18","1","552"
"10","5","28","compatibletest","attributeB","23","1","575"
"10","5","29","compatibletest","targetAleft","18","1","655"
"10","5","30","compatibletest","targetAleft","18","1","499"
"10","5","31","compatibletest","targetAleft","18","1","349"
"10","5","32","compatibletest","attributeB","23","1","1101"
"10","5","33","compatibletest","targetAleft","18","1","1487"
"10","5","34","compatibletest","attributeB","23","1","1673"
"10","5","35","compatibletest","attributeB","23","1","589"
"10","5","36","compatibletest","targetAleft","18","1","499"
"10","5","37","compatibletest","attributeA","18","1","1270"
"10","5","38","compatibletest","targetAleft","18","1","721"
"10","5","39","compatibletest","targetAleft","18","1","682"
"10","5","40","compatibletest","attributeB","23","1","1165"
"10","5","41","compatibletest","attributeB","23","1","3165"
"10","5","42","compatibletest","attributeB","23","1","965"
"10","5","43","compatibletest","targetAleft","18","1","557"
"10","5","44","compatibletest","targetAleft","18","1","381"
"10","5","45","compatibletest","targetAleft","18","1","300"
"10","5","46","compatibletest","targetAleft","18","1","310"
"10","5","47","compatibletest","attributeB","23","1","600"
"10","5","48","compatibletest","targetAleft","18","1","526"
"10","5","49","compatibletest","attributeB","23","1","951"
"10","5","50","compatibletest","attributeA","18","1","1647"
"10","5","51","compatibletest","targetAleft","18","1","1235"
"10","5","52","compatibletest","attributeA","18","1","888"
"10","5","53","compatibletest","targetAleft","18","1","603"
"10","5","54","compatibletest","attributeB","23","1","801"
"10","5","55","compatibletest","attributeB","23","0","1927"
"10","5","56","compatibletest","attributeB","23","0","1175"
"10","5","57","compatibletest","attributeB","23","1","589"
"10","5","58","compatibletest","attributeB","23","1","476"
"10","5","59","compatibletest","attributeB","23","1","536"
"10","5","60","compatibletest","attributeA","18","0","912"
"10","5","61","compatibletest","targetAleft","18","1","626"
"10","5","62","compatibletest","attributeA","18","1","1423"
"10","5","63","compatibletest","attributeA","18","1","540"
"10","5","64","compatibletest","targetAleft","18","1","597"
"10","5","65","compatibletest","attributeA","18","1","643"
"10","5","66","compatibletest","attributeA","18","1","552"
"10","5","67","compatibletest","attributeB","23","1","552"
"10","5","68","compatibletest","attributeA","18","1","664"
"10","5","69","compatibletest","attributeB","23","1","556"
"10","5","70","compatibletest","attributeB","23","1","1100"
"104","1","1","debriefing","debriefing","57","0","15809"
"104","1","1","demographics","age","37","1","3322"
"104","1","2","demographics","gender","Male","1","6523"
"104","1","2","targetincompatiblepractice","targetBleft","18","1","2029"
"104","1","3","targetincompatiblepractice","targetBleft","18","1","1714"
"104","1","4","targetincompatiblepractice","targetBleft","18","0","1979"
"104","1","5","targetincompatiblepractice","targetAright","23","0","1234"
"104","1","6","targetincompatiblepractice","targetAright","23","1","764"
"104","1","7","targetincompatiblepractice","targetBleft","18","1","665"
"104","1","8","targetincompatiblepractice","targetBleft","18","1","693"
"104","1","9","targetincompatiblepractice","targetAright","23","1","791"
"104","1","10","targetincompatiblepractice","targetAright","23","1","607"
"104","1","11","targetincompatiblepractice","targetBleft","18","1","631"
"104","1","12","targetincompatiblepractice","targetAright","23","1","589"
"104","1","13","targetincompatiblepractice","targetAright","23","1","545"
"104","1","14","targetincompatiblepractice","targetBleft","18","1","562"
"104","1","15","targetincompatiblepractice","targetBleft","18","1","589"
"104","1","16","targetincompatiblepractice","targetBleft","18","1","602"
"104","1","17","targetincompatiblepractice","targetAright","23","1","595"
"104","1","18","targetincompatiblepractice","targetAright","23","1","533"
"104","1","19","targetincompatiblepractice","targetBleft","18","1","511"
"104","1","20","targetincompatiblepractice","targetAright","23","1","510"
"104","1","21","targetincompatiblepractice","targetAright","23","1","529"
"104","2","2","attributepractice","attributeA","18","1","1335"
"104","2","3","attributepractice","attributeB","23","1","899"
"104","2","4","attributepractice","attributeA","18","1","699"
"104","2","5","attributepractice","attributeB","23","1","705"
"104","2","6","attributepractice","attributeB","23","0","1349"
"104","2","7","attributepractice","attributeA","18","1","658"
"104","2","8","attributepractice","attributeA","18","1","638"
"104","2","9","attributepractice","attributeB","23","1","619"
"104","2","10","attributepractice","attributeA","18","1","676"
"104","2","11","attributepractice","attributeB","23","1","813"
"104","2","12","attributepractice","attributeB","23","1","847"
"104","2","13","attributepractice","attributeA","18","1","646"
"104","2","14","attributepractice","attributeB","23","1","762"
"104","2","15","attributepractice","attributeB","23","1","546"
"104","2","16","attributepractice","attributeB","23","1","553"
"104","2","17","attributepractice","attributeA","18","1","569"
"104","2","18","attributepractice","attributeA","18","1","880"
"104","2","19","attributepractice","attributeB","23","1","617"
"104","2","20","attributepractice","attributeA","18","1","573"
"104","2","21","attributepractice","attributeA","18","0","4484"
"104","3","2","incompatibletest1","attributeB","23","1","2079"
"104","3","3","incompatibletest1","targetAright","23","1","1902"
"104","3","4","incompatibletest1","attributeA","18","1","1956"
"104","3","5","incompatibletest1","targetBleft","18","1","1472"
"104","3","6","incompatibletest1","attributeA","18","1","827"
"104","3","7","incompatibletest1","targetBleft","18","1","631"
"104","3","8","incompatibletest1","attributeA","18","1","625"
"104","3","9","incompatibletest1","targetAright","23","0","1520"
"104","3","10","incompatibletest1","attributeB","23","0","1335"
"104","3","11","incompatibletest1","targetBleft","18","1","828"
"104","3","12","incompatibletest1","attributeB","23","1","1664"
"104","3","13","incompatibletest1","targetAright","23","1","2075"
"104","3","14","incompatibletest1","attributeA","18","1","1431"
"104","3","15","incompatibletest1","targetBleft","18","1","1186"
"104","3","16","incompatibletest1","attributeB","23","1","974"
"104","3","17","incompatibletest1","targetAright","23","1","1202"
"104","3","18","incompatibletest1","attributeB","23","1","969"
"104","3","19","incompatibletest1","targetBleft","18","1","776"
"104","3","20","incompatibletest1","attributeA","18","0","2408"
"104","3","21","incompatibletest1","targetAright","23","1","885"
"104","5","1","incompatibletest2","attributeB","23","1","2536"
"104","5","2","incompatibletest2","targetAright","23","1","1431"
"104","5","3","incompatibletest2","attributeA","18","1","743"
"104","5","4","incompatibletest2","targetAright","23","1","774"
"104","5","5","incompatibletest2","attributeA","18","1","1148"
"104","5","6","incompatibletest2","targetAright","23","1","703"
"104","5","7","incompatibletest2","attributeB","23","1","702"
"104","5","8","incompatibletest2","targetBleft","18","1","712"
"104","5","9","incompatibletest2","attributeA","18","1","754"
"104","5","10","incompatibletest2","targetBleft","18","1","804"
"104","5","11","incompatibletest2","attributeB","23","1","755"
"104","5","12","incompatibletest2","targetAright","23","1","551"
"104","5","13","incompatibletest2","attributeB","23","1","925"
"104","5","14","incompatibletest2","targetAright","23","1","631"
"104","5","15","incompatibletest2","attributeA","18","1","727"
"104","5","16","incompatibletest2","targetAright","23","1","757"
"104","5","17","incompatibletest2","attributeB","23","1","560"
"104","5","18","incompatibletest2","targetBleft","18","1","660"
"104","5","19","incompatibletest2","attributeB","23","1","1041"
"104","5","20","incompatibletest2","targetAright","23","1","523"
"104","5","21","incompatibletest2","attributeA","18","1","563"
"104","5","22","incompatibletest2","targetBleft","18","1","787"
"104","5","23","incompatibletest2","attributeA","18","1","1231"
"104","5","24","incompatibletest2","targetAright","23","1","666"
"104","5","25","incompatibletest2","attributeB","23","1","504"
"104","5","26","incompatibletest2","targetBleft","18","1","699"
"104","5","27","incompatibletest2","attributeB","23","1","633"
"104","5","28","incompatibletest2","targetAright","23","1","479"
"104","5","29","incompatibletest2","attributeB","23","1","746"
"104","5","30","incompatibletest2","targetBleft","18","1","641"
"104","5","31","incompatibletest2","attributeB","23","1","866"
"104","5","32","incompatibletest2","targetBleft","18","1","705"
"104","5","33","incompatibletest2","attributeA","18","1","672"
"104","5","34","incompatibletest2","targetBleft","18","1","732"
"104","5","35","incompatibletest2","attributeA","18","1","1273"
"104","5","36","incompatibletest2","targetBleft","18","1","2948"
"104","5","37","incompatibletest2","attributeA","18","1","729"
"104","5","38","incompatibletest2","targetAright","23","1","577"
"104","5","39","incompatibletest2","attributeA","18","1","656"
"104","5","40","incompatibletest2","targetBleft","18","1","633"
"104","6","2","targetcompatiblepractice","targetAleft","18","1","1266"
"104","6","3","targetcompatiblepractice","targetAleft","18","1","2537"
"104","6","4","targetcompatiblepractice","targetBright","23","1","867"
"104","6","5","targetcompatiblepractice","targetAleft","18","1","766"
"104","6","6","targetcompatiblepractice","targetBright","23","1","684"
"104","6","7","targetcompatiblepractice","targetAleft","18","1","510"
"104","6","8","targetcompatiblepractice","targetBright","23","1","460"
"104","6","9","targetcompatiblepractice","targetAleft","18","1","429"
"104","6","10","targetcompatiblepractice","targetBright","23","0","996"
"104","6","11","targetcompatiblepractice","targetAleft","18","1","427"
"104","6","12","targetcompatiblepractice","targetBright","23","1","631"
"104","6","13","targetcompatiblepractice","targetAleft","18","1","542"
"104","6","14","targetcompatiblepractice","targetBright","23","1","715"
"104","6","15","targetcompatiblepractice","targetAleft","18","1","535"
"104","6","16","targetcompatiblepractice","targetBright","23","1","517"
"104","6","17","targetcompatiblepractice","targetBright","23","1","572"
"104","6","18","targetcompatiblepractice","targetAleft","18","1","610"
"104","6","19","targetcompatiblepractice","targetBright","23","1","689"
"104","6","20","targetcompatiblepractice","targetAleft","18","1","601"
"104","6","21","targetcompatiblepractice","targetBright","23","1","511"
"104","7","2","compatibletest1","attributeB","23","1","2345"
"104","7","3","compatibletest1","targetAleft","18","1","1034"
"104","7","4","compatibletest1","attributeA","18","1","1863"
"104","7","5","compatibletest1","targetAleft","18","1","1001"
"104","7","6","compatibletest1","attributeA","18","1","793"
"104","7","7","compatibletest1","targetAleft","18","1","713"
"104","7","8","compatibletest1","attributeB","23","1","776"
"104","7","9","compatibletest1","targetAleft","18","1","606"
"104","7","10","compatibletest1","attributeB","23","1","679"
"104","7","11","compatibletest1","targetBright","23","1","492"
"104","7","12","compatibletest1","attributeA","18","1","672"
"104","7","13","compatibletest1","targetAleft","18","1","851"
"104","7","14","compatibletest1","attributeB","23","1","788"
"104","7","15","compatibletest1","targetBright","23","1","632"
"104","7","16","compatibletest1","attributeA","18","1","799"
"104","7","17","compatibletest1","targetBright","23","1","572"
"104","7","18","compatibletest1","attributeB","23","1","586"
"104","7","19","compatibletest1","targetBright","23","1","687"
"104","7","20","compatibletest1","attributeA","18","1","620"
"104","7","21","compatibletest1","targetBright","23","1","565"
"104","9","1","compatibletest2","attributeA","18","1","776"
"104","9","2","compatibletest2","targetAleft","18","1","1326"
"104","9","3","compatibletest2","attributeB","23","1","758"
"104","9","4","compatibletest2","targetAleft","18","1","543"
"104","9","5","compatibletest2","attributeA","18","1","626"
"104","9","6","compatibletest2","targetBright","23","1","511"
"104","9","7","compatibletest2","attributeB","23","1","522"
"104","9","8","compatibletest2","targetBright","23","1","629"
"104","9","9","compatibletest2","attributeB","23","1","510"
"104","9","10","compatibletest2","targetBright","23","1","562"
"104","9","11","compatibletest2","attributeA","18","1","592"
"104","9","12","compatibletest2","targetAleft","18","1","747"
"104","9","13","compatibletest2","attributeB","23","1","586"
"104","9","14","compatibletest2","targetAleft","18","1","674"
"104","9","15","compatibletest2","attributeB","23","1","751"
"104","9","16","compatibletest2","targetAleft","18","1","581"
"104","9","17","compatibletest2","attributeA","18","1","679"
"104","9","18","compatibletest2","targetAleft","18","1","637"
"104","9","19","compatibletest2","attributeB","23","1","563"
"104","9","20","compatibletest2","targetBright","23","1","606"
"104","9","21","compatibletest2","attributeA","18","1","657"
"104","9","22","compatibletest2","targetAleft","18","0","1062"
"104","9","23","compatibletest2","attributeB","23","1","549"
"104","9","24","compatibletest2","targetAleft","18","1","707"
"104","9","25","compatibletest2","attributeA","18","0","1040"
"104","9","26","compatibletest2","targetAleft","18","1","766"
"104","9","27","compatibletest2","attributeA","18","1","693"
"104","9","28","compatibletest2","targetBright","23","1","661"
"104","9","29","compatibletest2","attributeA","18","1","805"
"104","9","30","compatibletest2","targetAleft","18","1","938"
"104","9","31","compatibletest2","attributeB","23","1","806"
"104","9","32","compatibletest2","targetBright","23","1","1128"
"104","9","33","compatibletest2","attributeA","18","1","616"
"104","9","34","compatibletest2","targetBright","23","1","519"
"104","9","35","compatibletest2","attributeB","23","1","518"
"104","9","36","compatibletest2","targetBright","23","1","557"
"104","9","37","compatibletest2","attributeA","18","1","483"
"104","9","38","compatibletest2","targetBright","23","1","530"
"104","9","39","compatibletest2","attributeB","23","1","576"
"104","9","40","compatibletest2","targetBright","23","1","526"
"104","1","1","racism_scale","likert_scale","1",NA,NA
"104","1","2","racism_scale","likert_scale","1",NA,NA
"104","1","3","racism_scale","likert_scale","5",NA,NA
"104","1","4","racism_scale","likert_scale","1",NA,NA
"104","1","5","racism_scale","likert_scale","1",NA,NA
"104","1","6","racism_scale","likert_scale","4",NA,NA
"104","1","7","racism_scale","likert_scale","3",NA,NA
"104","1","1","ratings","images","7",NA,NA
"104","1","2","ratings","images","7",NA,NA
"104","1","3","ratings","images","7",NA,NA
"104","1","4","ratings","images","7",NA,NA
"104","1","5","ratings","images","7",NA,NA
"104","1","6","ratings","images","7",NA,NA
"104","1","2","practice_incompatibletest","attributeB","23","1","1679"
"104","1","3","practice_incompatibletest","attributeA","18","1","552"
"104","1","4","practice_incompatibletest","attributeA","18","1","564"
"104","1","5","practice_incompatibletest","attributeA","18","1","577"
"104","1","6","practice_incompatibletest","attributeB","23","1","469"
"104","1","7","practice_incompatibletest","attributeA","18","1","562"
"104","1","8","practice_incompatibletest","attributeB","23","0","918"
"104","1","9","practice_incompatibletest","attributeB","23","1","793"
"104","1","10","practice_incompatibletest","attributeB","23","1","575"
"104","1","11","practice_incompatibletest","attributeA","18","1","625"
"104","3","1","incompatibletest","attributeB","23","1","1861"
"104","3","2","incompatibletest","targetAright","23","1","916"
"104","3","3","incompatibletest","attributeA","18","1","660"
"104","3","4","incompatibletest","targetAright","23","1","656"
"104","3","5","incompatibletest","attributeA","18","1","667"
"104","3","6","incompatibletest","attributeA","18","1","673"
"104","3","7","incompatibletest","attributeB","23","1","580"
"104","3","8","incompatibletest","targetAright","23","1","588"
"104","3","9","incompatibletest","targetAright","23","1","632"
"104","3","10","incompatibletest","attributeA","18","1","765"
"104","3","11","incompatibletest","attributeB","23","1","499"
"104","3","12","incompatibletest","attributeB","23","1","501"
"104","3","13","incompatibletest","attributeB","23","1","464"
"104","3","14","incompatibletest","attributeA","18","1","614"
"104","3","15","incompatibletest","attributeA","18","1","717"
"104","3","16","incompatibletest","targetAright","23","1","713"
"104","3","17","incompatibletest","targetAright","23","1","729"
"104","3","18","incompatibletest","targetAright","23","1","530"
"104","3","19","incompatibletest","attributeA","18","1","639"
"104","3","20","incompatibletest","targetAright","23","1","546"
"104","3","21","incompatibletest","attributeA","18","1","640"
"104","3","22","incompatibletest","attributeA","18","1","587"
"104","3","23","incompatibletest","attributeB","23","1","558"
"104","3","24","incompatibletest","attributeA","18","1","642"
"104","3","25","incompatibletest","targetAright","23","1","550"
"104","3","26","incompatibletest","attributeB","23","1","657"
"104","3","27","incompatibletest","targetAright","23","1","503"
"104","3","28","incompatibletest","attributeA","18","1","570"
"104","3","29","incompatibletest","targetAright","23","1","636"
"104","3","30","incompatibletest","attributeA","18","1","614"
"104","3","31","incompatibletest","attributeB","23","1","590"
"104","3","32","incompatibletest","targetAright","23","1","435"
"104","3","33","incompatibletest","attributeB","23","1","613"
"104","3","34","incompatibletest","attributeA","18","1","516"
"104","3","35","incompatibletest","targetAright","23","1","451"
"104","3","36","incompatibletest","attributeB","23","1","429"
"104","3","37","incompatibletest","attributeB","23","1","498"
"104","3","38","incompatibletest","targetAright","23","1","432"
"104","3","39","incompatibletest","attributeB","23","1","719"
"104","3","40","incompatibletest","attributeA","18","1","675"
"104","3","41","incompatibletest","attributeA","18","1","572"
"104","3","42","incompatibletest","attributeA","18","1","494"
"104","3","43","incompatibletest","targetAright","23","1","448"
"104","3","44","incompatibletest","attributeA","18","1","551"
"104","3","45","incompatibletest","targetAright","23","1","468"
"104","3","46","incompatibletest","targetAright","23","1","517"
"104","3","47","incompatibletest","attributeA","18","1","551"
"104","3","48","incompatibletest","attributeB","23","1","472"
"104","3","49","incompatibletest","attributeA","18","1","590"
"104","3","50","incompatibletest","attributeA","18","0","908"
"104","3","51","incompatibletest","attributeA","18","0","928"
"104","3","52","incompatibletest","attributeB","23","1","830"
"104","3","53","incompatibletest","attributeA","18","1","664"
"104","3","54","incompatibletest","attributeB","23","1","550"
"104","3","55","incompatibletest","attributeA","18","1","474"
"104","3","56","incompatibletest","attributeA","18","1","597"
"104","3","57","incompatibletest","attributeA","18","1","624"
"104","3","58","incompatibletest","attributeB","23","1","419"
"104","3","59","incompatibletest","attributeB","23","0","902"
"104","3","60","incompatibletest","attributeB","23","1","553"
"104","3","61","incompatibletest","attributeB","23","1","460"
"104","3","62","incompatibletest","attributeA","18","1","568"
"104","3","63","incompatibletest","attributeB","23","1","454"
"104","3","64","incompatibletest","attributeA","18","1","606"
"104","3","65","incompatibletest","targetAright","23","1","661"
"104","3","66","incompatibletest","attributeA","18","1","693"
"104","3","67","incompatibletest","targetAright","23","1","528"
"104","3","68","incompatibletest","attributeA","18","1","626"
"104","3","69","incompatibletest","targetAright","23","1","523"
"104","3","70","incompatibletest","attributeA","18","1","655"
"104","5","1","compatibletest","attributeB","23","1","3074"
"104","5","2","compatibletest","attributeB","23","1","1894"
"104","5","3","compatibletest","attributeB","23","1","1763"
"104","5","4","compatibletest","attributeA","18","1","698"
"104","5","5","compatibletest","attributeA","18","1","662"
"104","5","6","compatibletest","targetAleft","18","1","524"
"104","5","7","compatibletest","attributeB","23","1","523"
"104","5","8","compatibletest","targetAleft","18","0","1246"
"104","5","9","compatibletest","attributeB","23","1","880"
"104","5","10","compatibletest","attributeB","23","1","1228"
"104","5","11","compatibletest","attributeB","23","1","813"
"104","5","12","compatibletest","attributeA","18","1","694"
"104","5","13","compatibletest","attributeB","23","1","687"
"104","5","14","compatibletest","targetAleft","18","1","583"
"104","5","15","compatibletest","targetAleft","18","1","549"
"104","5","16","compatibletest","attributeA","18","1","497"
"104","5","17","compatibletest","attributeB","23","1","529"
"104","5","18","compatibletest","attributeA","18","1","658"
"104","5","19","compatibletest","targetAleft","18","1","541"
"104","5","20","compatibletest","attributeB","23","1","614"
"104","5","21","compatibletest","attributeB","23","1","638"
"104","5","22","compatibletest","attributeB","23","1","705"
"104","5","23","compatibletest","targetAleft","18","1","443"
"104","5","24","compatibletest","attributeB","23","1","754"
"104","5","25","compatibletest","attributeB","23","1","674"
"104","5","26","compatibletest","attributeB","23","1","804"
"104","5","27","compatibletest","attributeB","23","1","439"
"104","5","28","compatibletest","targetAleft","18","1","520"
"104","5","29","compatibletest","attributeB","23","1","591"
"104","5","30","compatibletest","attributeA","18","1","629"
"104","5","31","compatibletest","attributeA","18","1","460"
"104","5","32","compatibletest","targetAleft","18","1","789"
"104","5","33","compatibletest","attributeA","18","1","726"
"104","5","34","compatibletest","attributeB","23","0","905"
"104","5","35","compatibletest","targetAleft","18","1","559"
"104","5","36","compatibletest","attributeB","23","1","626"
"104","5","37","compatibletest","targetAleft","18","1","490"
"104","5","38","compatibletest","attributeB","23","1","730"
"104","5","39","compatibletest","attributeA","18","1","713"
"104","5","40","compatibletest","targetAleft","18","0","977"
"104","5","41","compatibletest","attributeA","18","1","1086"
"104","5","42","compatibletest","attributeA","18","1","543"
"104","5","43","compatibletest","attributeB","23","0","856"
"104","5","44","compatibletest","attributeA","18","1","700"
"104","5","45","compatibletest","targetAleft","18","1","516"
"104","5","46","compatibletest","targetAleft","18","1","521"
"104","5","47","compatibletest","attributeB","23","1","558"
"104","5","48","compatibletest","attributeB","23","1","873"
"104","5","49","compatibletest","targetAleft","18","1","520"
"104","5","50","compatibletest","attributeA","18","1","520"
"104","5","51","compatibletest","attributeB","23","0","960"
"104","5","52","compatibletest","targetAleft","18","1","601"
"104","5","53","compatibletest","attributeB","23","1","628"
"104","5","54","compatibletest","targetAleft","18","1","620"
"104","5","55","compatibletest","attributeA","18","1","679"
"104","5","56","compatibletest","attributeB","23","1","745"
"104","5","57","compatibletest","targetAleft","18","1","550"
"104","5","58","compatibletest","attributeB","23","1","723"
"104","5","59","compatibletest","attributeA","18","1","441"
"104","5","60","compatibletest","attributeB","23","1","568"
"104","5","61","compatibletest","targetAleft","18","1","567"
"104","5","62","compatibletest","attributeA","18","1","622"
"104","5","63","compatibletest","targetAleft","18","1","467"
"104","5","64","compatibletest","attributeB","23","1","562"
"104","5","65","compatibletest","targetAleft","18","1","466"
"104","5","66","compatibletest","attributeA","18","1","474"
"104","5","67","compatibletest","attributeA","18","1","650"
"104","5","68","compatibletest","attributeA","18","1","599"
"104","5","69","compatibletest","attributeA","18","1","435"
"104","5","70","compatibletest","attributeB","23","1","559"
"106","1","1","debriefing","debriefing","57","0","16163"
"106","1","1","demographics","age","55","1","3406"
"106","1","2","demographics","gender","female","1","9414"
"106","1","2","targetincompatiblepractice","targetBleft","18","1","2662"
"106","1","3","targetincompatiblepractice","targetAright","23","1","948"
"106","1","4","targetincompatiblepractice","targetBleft","18","1","666"
"106","1","5","targetincompatiblepractice","targetAright","23","1","1044"
"106","1","6","targetincompatiblepractice","targetAright","23","1","1171"
"106","1","7","targetincompatiblepractice","targetBleft","18","1","756"
"106","1","8","targetincompatiblepractice","targetBleft","18","1","759"
"106","1","9","targetincompatiblepractice","targetBleft","18","1","1060"
"106","1","10","targetincompatiblepractice","targetAright","23","1","689"
"106","1","11","targetincompatiblepractice","targetBleft","18","1","827"
"106","1","12","targetincompatiblepractice","targetAright","23","1","667"
"106","1","13","targetincompatiblepractice","targetAright","23","1","899"
"106","1","14","targetincompatiblepractice","targetAright","23","1","698"
"106","1","15","targetincompatiblepractice","targetBleft","18","1","707"
"106","1","16","targetincompatiblepractice","targetAright","23","1","686"
"106","1","17","targetincompatiblepractice","targetBleft","18","1","644"
"106","1","18","targetincompatiblepractice","targetAright","23","1","803"
"106","1","19","targetincompatiblepractice","targetBleft","18","1","583"
"106","1","20","targetincompatiblepractice","targetAright","23","1","703"
"106","1","21","targetincompatiblepractice","targetBleft","18","1","631"
"106","2","2","attributepractice","attributeA","18","1","1321"
"106","2","3","attributepractice","attributeA","18","1","666"
"106","2","4","attributepractice","attributeA","18","1","534"
"106","2","5","attributepractice","attributeA","18","1","598"
"106","2","6","attributepractice","attributeA","18","1","547"
"106","2","7","attributepractice","attributeB","23","1","589"
"106","2","8","attributepractice","attributeB","23","1","486"
"106","2","9","attributepractice","attributeB","23","1","565"
"106","2","10","attributepractice","attributeB","23","1","510"
"106","2","11","attributepractice","attributeB","23","1","486"
"106","2","12","attributepractice","attributeA","18","1","648"
"106","2","13","attributepractice","attributeA","18","1","570"
"106","2","14","attributepractice","attributeB","23","1","575"
"106","2","15","attributepractice","attributeB","23","1","623"
"106","2","16","attributepractice","attributeB","23","1","535"
"106","2","17","attributepractice","attributeA","18","1","607"
"106","2","18","attributepractice","attributeB","23","1","519"
"106","2","19","attributepractice","attributeB","23","1","705"
"106","2","20","attributepractice","attributeA","18","1","568"
"106","2","21","attributepractice","attributeA","18","1","788"
"106","3","2","incompatibletest1","attributeA","18","1","1530"
"106","3","3","incompatibletest1","targetAright","23","1","2581"
"106","3","4","incompatibletest1","attributeA","18","1","1080"
"106","3","5","incompatibletest1","targetAright","23","1","800"
"106","3","6","incompatibletest1","attributeB","23","1","926"
"106","3","7","incompatibletest1","targetAright","23","1","900"
"106","3","8","incompatibletest1","attributeB","23","1","740"
"106","3","9","incompatibletest1","targetBleft","18","1","784"
"106","3","10","incompatibletest1","attributeB","23","1","807"
"106","3","11","incompatibletest1","targetBleft","18","1","923"
"106","3","12","incompatibletest1","attributeA","18","1","993"
"106","3","13","incompatibletest1","targetBleft","18","1","684"
"106","3","14","incompatibletest1","attributeA","18","1","1413"
"106","3","15","incompatibletest1","targetAright","23","1","758"
"106","3","16","incompatibletest1","attributeB","23","1","730"
"106","3","17","incompatibletest1","targetAright","23","1","643"
"106","3","18","incompatibletest1","attributeA","18","1","675"
"106","3","19","incompatibletest1","targetBleft","18","1","703"
"106","3","20","incompatibletest1","attributeB","23","1","683"
"106","3","21","incompatibletest1","targetBleft","18","1","697"
"106","5","1","incompatibletest2","attributeB","23","1","1091"
"106","5","2","incompatibletest2","targetBleft","18","1","775"
"106","5","3","incompatibletest2","attributeB","23","1","2136"
"106","5","4","incompatibletest2","targetAright","23","1","758"
"106","5","5","incompatibletest2","attributeB","23","1","904"
"106","5","6","incompatibletest2","targetAright","23","1","669"
"106","5","7","incompatibletest2","attributeA","18","1","704"
"106","5","8","incompatibletest2","targetAright","23","1","703"
"106","5","9","incompatibletest2","attributeB","23","1","1286"
"106","5","10","incompatibletest2","targetBleft","18","1","696"
"106","5","11","incompatibletest2","attributeB","23","1","1552"
"106","5","12","incompatibletest2","targetAright","23","1","856"
"106","5","13","incompatibletest2","attributeA","18","1","1639"
"106","5","14","incompatibletest2","targetAright","23","1","1796"
"106","5","15","incompatibletest2","attributeB","23","0","3860"
"106","5","16","incompatibletest2","targetBleft","18","1","1592"
"106","5","17","incompatibletest2","attributeA","18","1","1608"
"106","5","18","incompatibletest2","targetAright","23","1","1195"
"106","5","19","incompatibletest2","attributeA","18","1","1233"
"106","5","20","incompatibletest2","targetBleft","18","1","781"
"106","5","21","incompatibletest2","attributeB","23","1","865"
"106","5","22","incompatibletest2","targetBleft","18","1","917"
"106","5","23","incompatibletest2","attributeA","18","1","1052"
"106","5","24","incompatibletest2","targetBleft","18","1","692"
"106","5","25","incompatibletest2","attributeA","18","0","2162"
"106","5","26","incompatibletest2","targetAright","23","1","798"
"106","5","27","incompatibletest2","attributeB","23","1","879"
"106","5","28","incompatibletest2","targetBleft","18","1","675"
"106","5","29","incompatibletest2","attributeA","18","1","1375"
"106","5","30","incompatibletest2","targetBleft","18","1","851"
"106","5","31","incompatibletest2","attributeA","18","1","550"
"106","5","32","incompatibletest2","targetBleft","18","1","710"
"106","5","33","incompatibletest2","attributeA","18","1","864"
"106","5","34","incompatibletest2","targetAright","23","1","681"
"106","5","35","incompatibletest2","attributeB","23","1","840"
"106","5","36","incompatibletest2","targetAright","23","1","623"
"106","5","37","incompatibletest2","attributeB","23","1","634"
"106","5","38","incompatibletest2","targetAright","23","1","586"
"106","5","39","incompatibletest2","attributeA","18","1","797"
"106","5","40","incompatibletest2","targetBleft","18","1","588"
"106","6","2","targetcompatiblepractice","targetBright","23","1","1373"
"106","6","3","targetcompatiblepractice","targetBright","23","1","756"
"106","6","4","targetcompatiblepractice","targetBright","23","1","726"
"106","6","5","targetcompatiblepractice","targetAleft","18","1","705"
"106","6","6","targetcompatiblepractice","targetBright","23","1","616"
"106","6","7","targetcompatiblepractice","targetAleft","18","1","670"
"106","6","8","targetcompatiblepractice","targetAleft","18","1","768"
"106","6","9","targetcompatiblepractice","targetBright","23","1","540"
"106","6","10","targetcompatiblepractice","targetAleft","18","1","825"
"106","6","11","targetcompatiblepractice","targetAleft","18","1","830"
"106","6","12","targetcompatiblepractice","targetAleft","18","1","686"
"106","6","13","targetcompatiblepractice","targetBright","23","1","546"
"106","6","14","targetcompatiblepractice","targetBright","23","1","574"
"106","6","15","targetcompatiblepractice","targetBright","23","1","698"
"106","6","16","targetcompatiblepractice","targetAleft","18","1","620"
"106","6","17","targetcompatiblepractice","targetAleft","18","0","3195"
"106","6","18","targetcompatiblepractice","targetAleft","18","1","872"
"106","6","19","targetcompatiblepractice","targetBright","23","1","1124"
"106","6","20","targetcompatiblepractice","targetAleft","18","1","830"
"106","6","21","targetcompatiblepractice","targetBright","23","1","846"
"106","7","2","compatibletest1","attributeB","23","1","1119"
"106","7","3","compatibletest1","targetBright","23","1","1098"
"106","7","4","compatibletest1","attributeA","18","1","745"
"106","7","5","compatibletest1","targetAleft","18","1","705"
"106","7","6","compatibletest1","attributeB","23","1","731"
"106","7","7","compatibletest1","targetAleft","18","1","735"
"106","7","8","compatibletest1","attributeB","23","1","866"
"106","7","9","compatibletest1","targetBright","23","1","723"
"106","7","10","compatibletest1","attributeB","23","1","651"
"106","7","11","compatibletest1","targetBright","23","1","677"
"106","7","12","compatibletest1","attributeA","18","1","903"
"106","7","13","compatibletest1","targetBright","23","1","683"
"106","7","14","compatibletest1","attributeB","23","1","628"
"106","7","15","compatibletest1","targetBright","23","1","693"
"106","7","16","compatibletest1","attributeA","18","1","728"
"106","7","17","compatibletest1","targetAleft","18","1","656"
"106","7","18","compatibletest1","attributeA","18","1","720"
"106","7","19","compatibletest1","targetAleft","18","1","676"
"106","7","20","compatibletest1","attributeA","18","1","595"
"106","7","21","compatibletest1","targetAleft","18","1","643"
"106","9","1","compatibletest2","attributeA","18","1","1450"
"106","9","2","compatibletest2","targetBright","23","1","692"
"106","9","3","compatibletest2","attributeA","18","1","1011"
"106","9","4","compatibletest2","targetBright","23","1","645"
"106","9","5","compatibletest2","attributeB","23","1","857"
"106","9","6","compatibletest2","targetAleft","18","1","727"
"106","9","7","compatibletest2","attributeA","18","1","839"
"106","9","8","compatibletest2","targetBright","23","1","1280"
"106","9","9","compatibletest2","attributeA","18","1","884"
"106","9","10","compatibletest2","targetAleft","18","1","1056"
"106","9","11","compatibletest2","attributeB","23","1","775"
"106","9","12","compatibletest2","targetAleft","18","1","764"
"106","9","13","compatibletest2","attributeB","23","1","892"
"106","9","14","compatibletest2","targetAleft","18","1","633"
"106","9","15","compatibletest2","attributeA","18","0","1674"
"106","9","16","compatibletest2","targetBright","23","1","1554"
"106","9","17","compatibletest2","attributeA","18","1","765"
"106","9","18","compatibletest2","targetBright","23","1","1370"
"106","9","19","compatibletest2","attributeA","18","1","1382"
"106","9","20","compatibletest2","targetBright","23","1","1456"
"106","9","21","compatibletest2","attributeA","18","1","789"
"106","9","22","compatibletest2","targetAleft","18","1","950"
"106","9","23","compatibletest2","attributeA","18","1","645"
"106","9","24","compatibletest2","targetBright","23","1","733"
"106","9","25","compatibletest2","attributeB","23","1","609"
"106","9","26","compatibletest2","targetBright","23","1","553"
"106","9","27","compatibletest2","attributeB","23","1","567"
"106","9","28","compatibletest2","targetAleft","18","1","659"
"106","9","29","compatibletest2","attributeB","23","1","625"
"106","9","30","compatibletest2","targetAleft","18","1","867"
"106","9","31","compatibletest2","attributeA","18","1","1069"
"106","9","32","compatibletest2","targetBright","23","1","609"
"106","9","33","compatibletest2","attributeB","23","1","1196"
"106","9","34","compatibletest2","targetBright","23","1","938"
"106","9","35","compatibletest2","attributeB","23","1","715"
"106","9","36","compatibletest2","targetAleft","18","1","724"
"106","9","37","compatibletest2","attributeB","23","1","1379"
"106","9","38","compatibletest2","targetAleft","18","1","889"
"106","9","39","compatibletest2","attributeB","23","1","1070"
"106","9","40","compatibletest2","targetAleft","18","1","736"
"106","1","1","racism_scale","likert_scale","1",NA,NA
"106","1","2","racism_scale","likert_scale","1",NA,NA
"106","1","3","racism_scale","likert_scale","4",NA,NA
"106","1","4","racism_scale","likert_scale","1",NA,NA
"106","1","5","racism_scale","likert_scale","1",NA,NA
"106","1","6","racism_scale","likert_scale","1",NA,NA
"106","1","7","racism_scale","likert_scale","1",NA,NA
"106","1","1","ratings","images","4",NA,NA
"106","1","2","ratings","images","4",NA,NA
"106","1","3","ratings","images","4",NA,NA
"106","1","4","ratings","images","4",NA,NA
"106","1","5","ratings","images","4",NA,NA
"106","1","6","ratings","images","4",NA,NA
"106","1","2","practice_incompatibletest","attributeA","18","1","1449"
"106","1","3","practice_incompatibletest","attributeA","18","1","531"
"106","1","4","practice_incompatibletest","attributeB","23","1","642"
"106","1","5","practice_incompatibletest","attributeA","18","1","542"
"106","1","6","practice_incompatibletest","attributeA","18","1","776"
"106","1","7","practice_incompatibletest","attributeB","23","1","613"
"106","1","8","practice_incompatibletest","attributeB","23","1","790"
"106","1","9","practice_incompatibletest","attributeB","23","1","524"
"106","1","10","practice_incompatibletest","attributeB","23","1","548"
"106","1","11","practice_incompatibletest","attributeA","18","1","654"
"106","3","1","incompatibletest","targetAright","23","1","942"
"106","3","2","incompatibletest","attributeA","18","1","676"
"106","3","3","incompatibletest","attributeA","18","1","526"
"106","3","4","incompatibletest","targetAright","23","1","605"
"106","3","5","incompatibletest","attributeA","18","1","723"
"106","3","6","incompatibletest","attributeB","23","1","672"
"106","3","7","incompatibletest","targetAright","23","1","1230"
"106","3","8","incompatibletest","targetAright","23","1","774"
"106","3","9","incompatibletest","attributeB","23","1","583"
"106","3","10","incompatibletest","attributeA","18","1","569"
"106","3","11","incompatibletest","attributeA","18","1","626"
"106","3","12","incompatibletest","attributeA","18","1","682"
"106","3","13","incompatibletest","attributeB","23","1","548"
"106","3","14","incompatibletest","attributeB","23","1","585"
"106","3","15","incompatibletest","attributeA","18","1","626"
"106","3","16","incompatibletest","attributeB","23","1","743"
"106","3","17","incompatibletest","attributeB","23","1","684"
"106","3","18","incompatibletest","attributeA","18","1","776"
"106","3","19","incompatibletest","attributeB","23","1","679"
"106","3","20","incompatibletest","targetAright","23","1","758"
"106","3","21","incompatibletest","targetAright","23","1","781"
"106","3","22","incompatibletest","attributeB","23","1","690"
"106","3","23","incompatibletest","attributeA","18","1","738"
"106","3","24","incompatibletest","attributeA","18","1","642"
"106","3","25","incompatibletest","targetAright","23","1","632"
"106","3","26","incompatibletest","targetAright","23","1","620"
"106","3","27","incompatibletest","attributeB","23","1","596"
"106","3","28","incompatibletest","attributeA","18","0","1740"
"106","3","29","incompatibletest","attributeB","23","1","817"
"106","3","30","incompatibletest","attributeA","18","1","624"
"106","3","31","incompatibletest","targetAright","23","1","643"
"106","3","32","incompatibletest","targetAright","23","1","647"
"106","3","33","incompatibletest","attributeA","18","1","801"
"106","3","34","incompatibletest","attributeA","18","1","674"
"106","3","35","incompatibletest","targetAright","23","1","564"
"106","3","36","incompatibletest","attributeA","18","1","797"
"106","3","37","incompatibletest","attributeB","23","1","833"
"106","3","38","incompatibletest","attributeA","18","1","825"
"106","3","39","incompatibletest","targetAright","23","1","644"
"106","3","40","incompatibletest","targetAright","23","1","550"
"106","3","41","incompatibletest","attributeA","18","1","814"
"106","3","42","incompatibletest","targetAright","23","1","565"
"106","3","43","incompatibletest","attributeA","18","1","708"
"106","3","44","incompatibletest","attributeB","23","1","651"
"106","3","45","incompatibletest","attributeA","18","1","840"
"106","3","46","incompatibletest","attributeB","23","1","637"
"106","3","47","incompatibletest","attributeB","23","1","602"
"106","3","48","incompatibletest","targetAright","23","1","734"
"106","3","49","incompatibletest","attributeA","18","1","674"
"106","3","50","incompatibletest","attributeB","23","1","1395"
"106","3","51","incompatibletest","attributeB","23","1","600"
"106","3","52","incompatibletest","targetAright","23","1","665"
"106","3","53","incompatibletest","attributeA","18","1","619"
"106","3","54","incompatibletest","targetAright","23","1","703"
"106","3","55","incompatibletest","attributeB","23","1","674"
"106","3","56","incompatibletest","attributeA","18","1","881"
"106","3","57","incompatibletest","attributeA","18","1","582"
"106","3","58","incompatibletest","targetAright","23","1","545"
"106","3","59","incompatibletest","targetAright","23","1","507"
"106","3","60","incompatibletest","attributeA","18","1","782"
"106","3","61","incompatibletest","attributeB","23","1","559"
"106","3","62","incompatibletest","targetAright","23","1","588"
"106","3","63","incompatibletest","attributeA","18","0","1244"
"106","3","64","incompatibletest","attributeA","18","1","611"
"106","3","65","incompatibletest","attributeA","18","1","584"
"106","3","66","incompatibletest","attributeA","18","1","690"
"106","3","67","incompatibletest","attributeA","18","1","570"
"106","3","68","incompatibletest","attributeA","18","1","1022"
"106","3","69","incompatibletest","attributeB","23","1","651"
"106","3","70","incompatibletest","attributeB","23","1","454"
"106","5","1","compatibletest","attributeA","18","1","1350"
"106","5","2","compatibletest","attributeB","23","1","696"
"106","5","3","compatibletest","targetAleft","18","1","1432"
"106","5","4","compatibletest","attributeA","18","1","1258"
"106","5","5","compatibletest","attributeB","23","1","588"
"106","5","6","compatibletest","targetAleft","18","1","772"
"106","5","7","compatibletest","attributeB","23","1","650"
"106","5","8","compatibletest","attributeB","23","1","558"
"106","5","9","compatibletest","attributeB","23","1","523"
"106","5","10","compatibletest","attributeB","23","1","552"
"106","5","11","compatibletest","attributeB","23","1","528"
"106","5","12","compatibletest","attributeB","23","1","508"
"106","5","13","compatibletest","attributeA","18","1","596"
"106","5","14","compatibletest","attributeA","18","1","585"
"106","5","15","compatibletest","targetAleft","18","1","543"
"106","5","16","compatibletest","attributeB","23","1","718"
"106","5","17","compatibletest","targetAleft","18","1","1070"
"106","5","18","compatibletest","attributeA","18","1","1645"
"106","5","19","compatibletest","targetAleft","18","1","717"
"106","5","20","compatibletest","attributeA","18","1","737"
"106","5","21","compatibletest","attributeB","23","1","623"
"106","5","22","compatibletest","attributeB","23","1","810"
"106","5","23","compatibletest","attributeA","18","1","599"
"106","5","24","compatibletest","attributeA","18","1","522"
"106","5","25","compatibletest","targetAleft","18","1","502"
"106","5","26","compatibletest","attributeB","23","1","620"
"106","5","27","compatibletest","attributeA","18","1","661"
"106","5","28","compatibletest","targetAleft","18","0","1396"
"106","5","29","compatibletest","attributeB","23","1","793"
"106","5","30","compatibletest","targetAleft","18","1","2022"
"106","5","31","compatibletest","attributeB","23","1","1476"
"106","5","32","compatibletest","attributeB","23","1","492"
"106","5","33","compatibletest","attributeB","23","1","549"
"106","5","34","compatibletest","attributeA","18","1","574"
"106","5","35","compatibletest","attributeA","18","1","584"
"106","5","36","compatibletest","attributeB","23","1","566"
"106","5","37","compatibletest","attributeA","18","1","528"
"106","5","38","compatibletest","attributeB","23","1","789"
"106","5","39","compatibletest","targetAleft","18","1","577"
"106","5","40","compatibletest","attributeA","18","1","867"
"106","5","41","compatibletest","attributeB","23","1","696"
"106","5","42","compatibletest","attributeB","23","1","758"
"106","5","43","compatibletest","attributeB","23","1","449"
"106","5","44","compatibletest","attributeA","18","1","643"
"106","5","45","compatibletest","attributeA","18","1","599"
"106","5","46","compatibletest","targetAleft","18","1","533"
"106","5","47","compatibletest","targetAleft","18","1","533"
"106","5","48","compatibletest","attributeB","23","1","1323"
"106","5","49","compatibletest","targetAleft","18","1","1244"
"106","5","50","compatibletest","targetAleft","18","1","511"
"106","5","51","compatibletest","attributeB","23","0","1629"
"106","5","52","compatibletest","attributeB","23","1","716"
"106","5","53","compatibletest","targetAleft","18","1","792"
"106","5","54","compatibletest","targetAleft","18","1","900"
"106","5","55","compatibletest","attributeA","18","1","783"
"106","5","56","compatibletest","attributeA","18","1","593"
"106","5","57","compatibletest","attributeA","18","1","602"
"106","5","58","compatibletest","attributeB","23","1","688"
"106","5","59","compatibletest","targetAleft","18","1","690"
"106","5","60","compatibletest","attributeA","18","1","1154"
"106","5","61","compatibletest","targetAleft","18","1","527"
"106","5","62","compatibletest","targetAleft","18","1","506"
"106","5","63","compatibletest","attributeB","23","1","618"
"106","5","64","compatibletest","targetAleft","18","1","582"
"106","5","65","compatibletest","attributeB","23","1","717"
"106","5","66","compatibletest","attributeB","23","1","515"
"106","5","67","compatibletest","attributeA","18","1","673"
"106","5","68","compatibletest","attributeB","23","1","649"
"106","5","69","compatibletest","targetAleft","18","1","636"
"106","5","70","compatibletest","attributeB","23","1","580"
"107","1","1","debriefing","debriefing","57","0","5627"
"107","1","1","demographics","age","27 ","1","15517"
"107","1","2","demographics","gender","male","1","12424"
"107","1","2","targetcompatiblepractice","targetAleft","18","1","3223"
"107","1","3","targetcompatiblepractice","targetAleft","18","1","961"
"107","1","4","targetcompatiblepractice","targetBright","23","1","1312"
"107","1","5","targetcompatiblepractice","targetAleft","18","0","1633"
"107","1","6","targetcompatiblepractice","targetBright","23","1","1301"
"107","1","7","targetcompatiblepractice","targetBright","23","1","742"
"107","1","8","targetcompatiblepractice","targetBright","23","1","954"
"107","1","9","targetcompatiblepractice","targetAleft","18","0","1353"
"107","1","10","targetcompatiblepractice","targetAleft","18","1","813"
"107","1","11","targetcompatiblepractice","targetBright","23","0","922"
"107","1","12","targetcompatiblepractice","targetBright","23","1","795"
"107","1","13","targetcompatiblepractice","targetAleft","18","1","688"
"107","1","14","targetcompatiblepractice","targetBright","23","1","605"
"107","1","15","targetcompatiblepractice","targetAleft","18","1","612"
"107","1","16","targetcompatiblepractice","targetAleft","18","1","1120"
"107","1","17","targetcompatiblepractice","targetBright","23","1","615"
"107","1","18","targetcompatiblepractice","targetBright","23","1","635"
"107","1","19","targetcompatiblepractice","targetAleft","18","1","627"
"107","1","20","targetcompatiblepractice","targetBright","23","0","1290"
"107","1","21","targetcompatiblepractice","targetAleft","18","1","953"
"107","2","2","attributepractice","attributeB","23","1","1474"
"107","2","3","attributepractice","attributeA","18","1","883"
"107","2","4","attributepractice","attributeA","18","1","616"
"107","2","5","attributepractice","attributeA","18","1","801"
"107","2","6","attributepractice","attributeB","23","1","734"
"107","2","7","attributepractice","attributeB","23","1","1226"
"107","2","8","attributepractice","attributeB","23","1","842"
"107","2","9","attributepractice","attributeB","23","1","771"
"107","2","10","attributepractice","attributeA","18","1","659"
"107","2","11","attributepractice","attributeA","18","1","757"
"107","2","12","attributepractice","attributeA","18","1","772"
"107","2","13","attributepractice","attributeA","18","1","1074"
"107","2","14","attributepractice","attributeA","18","1","616"
"107","2","15","attributepractice","attributeB","23","1","893"
"107","2","16","attributepractice","attributeA","18","1","546"
"107","2","17","attributepractice","attributeB","23","0","1833"
"107","2","18","attributepractice","attributeA","18","1","551"
"107","2","19","attributepractice","attributeB","23","1","638"
"107","2","20","attributepractice","attributeB","23","1","462"
"107","2","21","attributepractice","attributeB","23","1","778"
"107","3","2","compatibletest1","attributeA","18","1","1121"
"107","3","3","compatibletest1","targetBright","23","1","835"
"107","3","4","compatibletest1","attributeA","18","1","747"
"107","3","5","compatibletest1","targetBright","23","1","837"
"107","3","6","compatibletest1","attributeB","23","1","1041"
"107","3","7","compatibletest1","targetAleft","18","1","723"
"107","3","8","compatibletest1","attributeA","18","1","910"
"107","3","9","compatibletest1","targetBright","23","1","580"
"107","3","10","compatibletest1","attributeB","23","1","1209"
"107","3","11","compatibletest1","targetAleft","18","1","801"
"107","3","12","compatibletest1","attributeB","23","1","767"
"107","3","13","compatibletest1","targetAleft","18","1","881"
"107","3","14","compatibletest1","attributeB","23","1","682"
"107","3","15","compatibletest1","targetBright","23","1","853"
"107","3","16","compatibletest1","attributeA","18","1","720"
"107","3","17","compatibletest1","targetAleft","18","1","932"
"107","3","18","compatibletest1","attributeA","18","1","1241"
"107","3","19","compatibletest1","targetAleft","18","1","987"
"107","3","20","compatibletest1","attributeB","23","1","695"
"107","3","21","compatibletest1","targetBright","23","1","953"
"107","5","1","compatibletest2","attributeB","23","1","1163"
"107","5","2","compatibletest2","targetAleft","18","1","669"
"107","5","3","compatibletest2","attributeB","23","1","737"
"107","5","4","compatibletest2","targetBright","23","1","977"
"107","5","5","compatibletest2","attributeA","18","1","823"
"107","5","6","compatibletest2","targetBright","23","1","608"
"107","5","7","compatibletest2","attributeA","18","1","894"
"107","5","8","compatibletest2","targetBright","23","1","552"
"107","5","9","compatibletest2","attributeA","18","1","1129"
"107","5","10","compatibletest2","targetBright","23","1","654"
"107","5","11","compatibletest2","attributeA","18","1","704"
"107","5","12","compatibletest2","targetAleft","18","1","882"
"107","5","13","compatibletest2","attributeA","18","1","724"
"107","5","14","compatibletest2","targetAleft","18","1","816"
"107","5","15","compatibletest2","attributeB","23","1","673"
"107","5","16","compatibletest2","targetAleft","18","1","683"
"107","5","17","compatibletest2","attributeB","23","1","1222"
"107","5","18","compatibletest2","targetBright","23","1","711"
"107","5","19","compatibletest2","attributeB","23","1","712"
"107","5","20","compatibletest2","targetAleft","18","1","868"
"107","5","21","compatibletest2","attributeA","18","1","774"
"107","5","22","compatibletest2","targetBright","23","1","1309"
"107","5","23","compatibletest2","attributeB","23","1","774"
"107","5","24","compatibletest2","targetAleft","18","1","698"
"107","5","25","compatibletest2","attributeB","23","1","899"
"107","5","26","compatibletest2","targetAleft","18","1","3832"
"107","5","27","compatibletest2","attributeB","23","1","1337"
"107","5","28","compatibletest2","targetBright","23","1","670"
"107","5","29","compatibletest2","attributeA","18","1","803"
"107","5","30","compatibletest2","targetBright","23","1","1018"
"107","5","31","compatibletest2","attributeA","18","1","779"
"107","5","32","compatibletest2","targetAleft","18","1","1339"
"107","5","33","compatibletest2","attributeA","18","1","1283"
"107","5","34","compatibletest2","targetAleft","18","0","1103"
"107","5","35","compatibletest2","attributeA","18","1","2731"
"107","5","36","compatibletest2","targetBright","23","1","726"
"107","5","37","compatibletest2","attributeB","23","1","1048"
"107","5","38","compatibletest2","targetAleft","18","1","858"
"107","5","39","compatibletest2","attributeB","23","1","1044"
"107","5","40","compatibletest2","targetBright","23","1","2628"
"107","6","2","targetincompatiblepractice","targetBleft","18","0","3550"
"107","6","3","targetincompatiblepractice","targetBleft","18","1","908"
"107","6","4","targetincompatiblepractice","targetBleft","18","1","631"
"107","6","5","targetincompatiblepractice","targetAright","23","1","908"
"107","6","6","targetincompatiblepractice","targetBleft","18","1","713"
"107","6","7","targetincompatiblepractice","targetAright","23","1","1445"
"107","6","8","targetincompatiblepractice","targetAright","23","1","667"
"107","6","9","targetincompatiblepractice","targetBleft","18","1","701"
"107","6","10","targetincompatiblepractice","targetAright","23","1","994"
"107","6","11","targetincompatiblepractice","targetBleft","18","1","629"
"107","6","12","targetincompatiblepractice","targetBleft","18","1","472"
"107","6","13","targetincompatiblepractice","targetBleft","18","1","864"
"107","6","14","targetincompatiblepractice","targetBleft","18","1","757"
"107","6","15","targetincompatiblepractice","targetBleft","18","1","395"
"107","6","16","targetincompatiblepractice","targetAright","23","1","546"
"107","6","17","targetincompatiblepractice","targetAright","23","1","702"
"107","6","18","targetincompatiblepractice","targetAright","23","1","764"
"107","6","19","targetincompatiblepractice","targetAright","23","1","587"
"107","6","20","targetincompatiblepractice","targetAright","23","1","558"
"107","6","21","targetincompatiblepractice","targetAright","23","1","436"
"107","7","2","incompatibletest1","attributeA","18","0","2644"
"107","7","3","incompatibletest1","targetAright","23","1","1117"
"107","7","4","incompatibletest1","attributeB","23","0","1328"
"107","7","5","incompatibletest1","targetBleft","18","1","2059"
"107","7","6","incompatibletest1","attributeA","18","1","1240"
"107","7","7","incompatibletest1","targetBleft","18","0","1363"
"107","7","8","incompatibletest1","attributeB","23","1","2672"
"107","7","9","incompatibletest1","targetAright","23","1","2295"
"107","7","10","incompatibletest1","attributeB","23","0","3782"
"107","7","11","incompatibletest1","targetAright","23","1","2175"
"107","7","12","incompatibletest1","attributeB","23","1","2135"
"107","7","13","incompatibletest1","targetAright","23","1","1035"
"107","7","14","incompatibletest1","attributeB","23","1","643"
"107","7","15","incompatibletest1","targetBleft","18","1","842"
"107","7","16","incompatibletest1","attributeA","18","0","1552"
"107","7","17","incompatibletest1","targetBleft","18","1","3150"
"107","7","18","incompatibletest1","attributeA","18","0","1708"
"107","7","19","incompatibletest1","targetAright","23","1","3079"
"107","7","20","incompatibletest1","attributeA","18","1","1888"
"107","7","21","incompatibletest1","targetBleft","18","0","2531"
"107","9","1","incompatibletest2","attributeA","18","1","1628"
"107","9","2","incompatibletest2","targetBleft","18","1","1785"
"107","9","3","incompatibletest2","attributeB","23","0","1448"
"107","9","4","incompatibletest2","targetAright","23","1","2483"
"107","9","5","incompatibletest2","attributeA","18","1","3375"
"107","9","6","incompatibletest2","targetAright","23","1","1105"
"107","9","7","incompatibletest2","attributeB","23","1","1478"
"107","9","8","incompatibletest2","targetBleft","18","1","2923"
"107","9","9","incompatibletest2","attributeA","18","1","3745"
"107","9","10","incompatibletest2","targetBleft","18","0","1196"
"107","9","11","incompatibletest2","attributeB","23","0","1357"
"107","9","12","incompatibletest2","targetBleft","18","1","8121"
"107","9","13","incompatibletest2","attributeA","18","1","1436"
"107","9","14","incompatibletest2","targetAright","23","1","1198"
"107","9","15","incompatibletest2","attributeA","18","1","1383"
"107","9","16","incompatibletest2","targetBleft","18","1","1626"
"107","9","17","incompatibletest2","attributeB","23","1","2219"
"107","9","18","incompatibletest2","targetBleft","18","1","755"
"107","9","19","incompatibletest2","attributeB","23","1","645"
"107","9","20","incompatibletest2","targetAright","23","0","1226"
"107","9","21","incompatibletest2","attributeB","23","0","1295"
"107","9","22","incompatibletest2","targetAright","23","1","2936"
"107","9","23","incompatibletest2","attributeB","23","1","1824"
"107","9","24","incompatibletest2","targetBleft","18","1","937"
"107","9","25","incompatibletest2","attributeA","18","1","1233"
"107","9","26","incompatibletest2","targetAright","23","1","1018"
"107","9","27","incompatibletest2","attributeB","23","1","1331"
"107","9","28","incompatibletest2","targetBleft","18","1","756"
"107","9","29","incompatibletest2","attributeB","23","1","1287"
"107","9","30","incompatibletest2","targetBleft","18","0","1059"
"107","9","31","incompatibletest2","attributeB","23","1","3126"
"107","9","32","incompatibletest2","targetAright","23","1","1282"
"107","9","33","incompatibletest2","attributeA","18","1","5191"
"107","9","34","incompatibletest2","targetAright","23","1","991"
"107","9","35","incompatibletest2","attributeA","18","1","3439"
"107","9","36","incompatibletest2","targetAright","23","1","1199"
"107","9","37","incompatibletest2","attributeA","18","1","7917"
"107","9","38","incompatibletest2","targetBleft","18","1","1427"
"107","9","39","incompatibletest2","attributeA","18","1","1057"
"107","9","40","incompatibletest2","targetAright","23","1","1660"
"107","1","1","racism_scale","likert_scale","5",NA,NA
"107","1","2","racism_scale","likert_scale","5",NA,NA
"107","1","3","racism_scale","likert_scale","4",NA,NA
"107","1","4","racism_scale","likert_scale","5",NA,NA
"107","1","5","racism_scale","likert_scale","4",NA,NA
"107","1","6","racism_scale","likert_scale","5",NA,NA
"107","1","7","racism_scale","likert_scale","5",NA,NA
"107","1","1","ratings","images","3",NA,NA
"107","1","2","ratings","images","3",NA,NA
"107","1","3","ratings","images","3",NA,NA
"107","1","4","ratings","images","3",NA,NA
"107","1","5","ratings","images","3",NA,NA
"107","1","6","ratings","images","4",NA,NA
"107","1","2","practice_compatibletest","attributeA","18","1","1621"
"107","1","3","practice_compatibletest","attributeA","18","1","814"
"107","1","4","practice_compatibletest","attributeB","23","1","640"
"107","1","5","practice_compatibletest","attributeA","18","1","609"
"107","1","6","practice_compatibletest","attributeB","23","1","1224"
"107","1","7","practice_compatibletest","attributeA","18","1","608"
"107","1","8","practice_compatibletest","attributeB","23","0","10854"
"107","1","9","practice_compatibletest","attributeB","23","0","1204"
"107","1","10","practice_compatibletest","attributeB","23","1","738"
"107","1","11","practice_compatibletest","attributeA","18","1","763"
"107","3","1","compatibletest","attributeB","23","1","5371"
"107","3","2","compatibletest","targetAleft","18","1","1354"
"107","3","3","compatibletest","attributeA","18","1","889"
"107","3","4","compatibletest","targetAleft","18","1","675"
"107","3","5","compatibletest","attributeA","18","1","1517"
"107","3","6","compatibletest","attributeB","23","1","710"
"107","3","7","compatibletest","attributeB","23","1","1291"
"107","3","8","compatibletest","targetAleft","18","1","846"
"107","3","9","compatibletest","targetAleft","18","1","672"
"107","3","10","compatibletest","attributeB","23","1","2518"
"107","3","11","compatibletest","attributeA","18","0","1939"
"107","3","12","compatibletest","attributeA","18","1","2218"
"107","3","13","compatibletest","attributeB","23","0","5132"
"107","3","14","compatibletest","attributeB","23","1","1170"
"107","3","15","compatibletest","attributeB","23","1","764"
"107","3","16","compatibletest","targetAleft","18","1","620"
"107","3","17","compatibletest","attributeB","23","1","5343"
"107","3","18","compatibletest","targetAleft","18","1","646"
"107","3","19","compatibletest","targetAleft","18","1","658"
"107","3","20","compatibletest","attributeB","23","1","1498"
"107","3","21","compatibletest","attributeB","23","1","781"
"107","3","22","compatibletest","attributeA","18","1","711"
"107","3","23","compatibletest","attributeA","18","1","709"
"107","3","24","compatibletest","attributeB","23","1","1422"
"107","3","25","compatibletest","attributeB","23","1","1051"
"107","3","26","compatibletest","attributeA","18","1","899"
"107","3","27","compatibletest","attributeB","23","1","1096"
"107","3","28","compatibletest","attributeB","23","1","677"
"107","3","29","compatibletest","attributeB","23","0","1801"
"107","3","30","compatibletest","attributeB","23","1","921"
"107","3","31","compatibletest","attributeA","18","1","715"
"107","3","32","compatibletest","targetAleft","18","1","2771"
"107","3","33","compatibletest","targetAleft","18","1","826"
"107","3","34","compatibletest","attributeA","18","1","722"
"107","3","35","compatibletest","attributeB","23","1","715"
"107","3","36","compatibletest","targetAleft","18","1","748"
"107","3","37","compatibletest","targetAleft","18","1","600"
"107","3","38","compatibletest","targetAleft","18","1","460"
"107","3","39","compatibletest","attributeB","23","1","1050"
"107","3","40","compatibletest","attributeA","18","1","681"
"107","3","41","compatibletest","attributeB","23","1","798"
"107","3","42","compatibletest","attributeB","23","1","931"
"107","3","43","compatibletest","targetAleft","18","1","576"
"107","3","44","compatibletest","attributeA","18","1","855"
"107","3","45","compatibletest","targetAleft","18","1","889"
"107","3","46","compatibletest","attributeB","23","0","863"
"107","3","47","compatibletest","attributeB","23","1","1934"
"107","3","48","compatibletest","attributeA","18","1","1545"
"107","3","49","compatibletest","attributeB","23","1","660"
"107","3","50","compatibletest","attributeB","23","1","877"
"107","3","51","compatibletest","attributeA","18","1","749"
"107","3","52","compatibletest","targetAleft","18","1","692"
"107","3","53","compatibletest","targetAleft","18","1","867"
"107","3","54","compatibletest","attributeA","18","1","1563"
"107","3","55","compatibletest","targetAleft","18","1","598"
"107","3","56","compatibletest","attributeA","18","1","778"
"107","3","57","compatibletest","attributeB","23","1","669"
"107","3","58","compatibletest","attributeB","23","1","750"
"107","3","59","compatibletest","targetAleft","18","1","520"
"107","3","60","compatibletest","attributeA","18","0","1300"
"107","3","61","compatibletest","attributeB","23","1","710"
"107","3","62","compatibletest","attributeA","18","1","682"
"107","3","63","compatibletest","targetAleft","18","1","608"
"107","3","64","compatibletest","attributeA","18","1","1342"
"107","3","65","compatibletest","attributeB","23","1","647"
"107","3","66","compatibletest","attributeB","23","1","1177"
"107","3","67","compatibletest","attributeA","18","1","653"
"107","3","68","compatibletest","attributeA","18","1","781"
"107","3","69","compatibletest","attributeB","23","1","617"
"107","3","70","compatibletest","targetAleft","18","1","573"
"107","5","1","incompatibletest","targetAright","23","1","3740"
"107","5","2","incompatibletest","attributeB","23","0","1640"
"107","5","3","incompatibletest","attributeA","18","1","4860"
"107","5","4","incompatibletest","targetAright","23","1","1991"
"107","5","5","incompatibletest","attributeA","18","1","3941"
"107","5","6","incompatibletest","targetAright","23","1","894"
"107","5","7","incompatibletest","attributeB","23","1","697"
"107","5","8","incompatibletest","attributeB","23","1","886"
"107","5","9","incompatibletest","attributeA","18","1","676"
"107","5","10","incompatibletest","attributeB","23","1","688"
"107","5","11","incompatibletest","attributeA","18","1","805"
"107","5","12","incompatibletest","attributeA","18","1","1381"
"107","5","13","incompatibletest","attributeB","23","1","768"
"107","5","14","incompatibletest","targetAright","23","1","458"
"107","5","15","incompatibletest","attributeA","18","1","725"
"107","5","16","incompatibletest","attributeB","23","1","592"
"107","5","17","incompatibletest","attributeB","23","1","648"
"107","5","18","incompatibletest","targetAright","23","1","484"
"107","5","19","incompatibletest","attributeB","23","1","732"
"107","5","20","incompatibletest","attributeB","23","1","656"
"107","5","21","incompatibletest","targetAright","23","1","489"
"107","5","22","incompatibletest","attributeB","23","1","720"
"107","5","23","incompatibletest","attributeA","18","1","682"
"107","5","24","incompatibletest","targetAright","23","1","564"
"107","5","25","incompatibletest","attributeA","18","1","691"
"107","5","26","incompatibletest","attributeB","23","1","909"
"107","5","27","incompatibletest","attributeA","18","1","1052"
"107","5","28","incompatibletest","targetAright","23","1","753"
"107","5","29","incompatibletest","attributeA","18","1","1157"
"107","5","30","incompatibletest","attributeA","18","1","1079"
"107","5","31","incompatibletest","attributeA","18","1","874"
"107","5","32","incompatibletest","attributeA","18","1","668"
"107","5","33","incompatibletest","attributeB","23","1","730"
"107","5","34","incompatibletest","targetAright","23","1","818"
"107","5","35","incompatibletest","attributeA","18","1","898"
"107","5","36","incompatibletest","attributeA","18","1","891"
"107","5","37","incompatibletest","attributeA","18","1","588"
"107","5","38","incompatibletest","attributeB","23","1","1510"
"107","5","39","incompatibletest","attributeB","23","1","681"
"107","5","40","incompatibletest","attributeA","18","1","615"
"107","5","41","incompatibletest","attributeA","18","1","696"
"107","5","42","incompatibletest","attributeA","18","1","659"
"107","5","43","incompatibletest","attributeA","18","1","986"
"107","5","44","incompatibletest","targetAright","23","1","1056"
"107","5","45","incompatibletest","attributeA","18","0","807"
"107","5","46","incompatibletest","attributeA","18","1","1124"
"107","5","47","incompatibletest","targetAright","23","1","1021"
"107","5","48","incompatibletest","targetAright","23","1","763"
"107","5","49","incompatibletest","targetAright","23","1","891"
"107","5","50","incompatibletest","attributeA","18","0","739"
"107","5","51","incompatibletest","attributeB","23","0","857"
"107","5","52","incompatibletest","attributeA","18","1","710"
"107","5","53","incompatibletest","targetAright","23","1","2956"
"107","5","54","incompatibletest","attributeB","23","1","883"
"107","5","55","incompatibletest","attributeB","23","0","4230"
"107","5","56","incompatibletest","attributeB","23","1","813"
"107","5","57","incompatibletest","targetAright","23","1","738"
"107","5","58","incompatibletest","attributeA","18","1","861"
"107","5","59","incompatibletest","attributeA","18","1","961"
"107","5","60","incompatibletest","targetAright","23","1","712"
"107","5","61","incompatibletest","attributeB","23","1","1595"
"107","5","62","incompatibletest","attributeA","18","1","674"
"107","5","63","incompatibletest","targetAright","23","1","1125"
"107","5","64","incompatibletest","attributeA","18","0","792"
"107","5","65","incompatibletest","attributeA","18","1","893"
"107","5","66","incompatibletest","targetAright","23","1","573"
"107","5","67","incompatibletest","attributeA","18","0","905"
"107","5","68","incompatibletest","targetAright","23","1","955"
"107","5","69","incompatibletest","targetAright","23","1","904"
"107","5","70","incompatibletest","attributeB","23","0","1972"
"109","1","1","debriefing","debriefing","57","0","1561"
"109","1","1","demographics","age","51","1","3435"
"109","1","2","demographics","gender","female","1","6053"
"109","1","2","targetcompatiblepractice","targetAleft","18","1","1596"
"109","1","3","targetcompatiblepractice","targetAleft","18","1","485"
"109","1","4","targetcompatiblepractice","targetAleft","18","1","440"
"109","1","5","targetcompatiblepractice","targetAleft","18","1","461"
"109","1","6","targetcompatiblepractice","targetBright","23","1","666"
"109","1","7","targetcompatiblepractice","targetAleft","18","1","478"
"109","1","8","targetcompatiblepractice","targetBright","23","1","567"
"109","1","9","targetcompatiblepractice","targetBright","23","1","507"
"109","1","10","targetcompatiblepractice","targetBright","23","1","740"
"109","1","11","targetcompatiblepractice","targetBright","23","1","482"
"109","1","12","targetcompatiblepractice","targetAleft","18","1","464"
"109","1","13","targetcompatiblepractice","targetAleft","18","1","546"
"109","1","14","targetcompatiblepractice","targetAleft","18","1","478"
"109","1","15","targetcompatiblepractice","targetBright","23","1","630"
"109","1","16","targetcompatiblepractice","targetBright","23","1","664"
"109","1","17","targetcompatiblepractice","targetAleft","18","1","548"
"109","1","18","targetcompatiblepractice","targetBright","23","0","1021"
"109","1","19","targetcompatiblepractice","targetBright","23","1","799"
"109","1","20","targetcompatiblepractice","targetBright","23","1","453"
"109","1","21","targetcompatiblepractice","targetAleft","18","1","502"
"109","2","2","attributepractice","attributeB","23","1","1252"
"109","2","3","attributepractice","attributeA","18","1","532"
"109","2","4","attributepractice","attributeB","23","1","450"
"109","2","5","attributepractice","attributeB","23","1","414"
"109","2","6","attributepractice","attributeB","23","1","415"
"109","2","7","attributepractice","attributeA","18","0","793"
"109","2","8","attributepractice","attributeA","18","1","419"
"109","2","9","attributepractice","attributeB","23","1","531"
"109","2","10","attributepractice","attributeA","18","1","608"
"109","2","11","attributepractice","attributeA","18","1","677"
"109","2","12","attributepractice","attributeB","23","1","802"
"109","2","13","attributepractice","attributeA","18","1","944"
"109","2","14","attributepractice","attributeB","23","1","555"
"109","2","15","attributepractice","attributeB","23","1","521"
"109","2","16","attributepractice","attributeB","23","1","534"
"109","2","17","attributepractice","attributeA","18","0","912"
"109","2","18","attributepractice","attributeA","18","1","440"
"109","2","19","attributepractice","attributeA","18","1","492"
"109","2","20","attributepractice","attributeA","18","1","529"
"109","2","21","attributepractice","attributeB","23","1","667"
"109","3","2","compatibletest1","attributeA","18","1","1400"
"109","3","3","compatibletest1","targetAleft","18","1","795"
"109","3","4","compatibletest1","attributeB","23","1","566"
"109","3","5","compatibletest1","targetBright","23","1","492"
"109","3","6","compatibletest1","attributeB","23","1","467"
"109","3","7","compatibletest1","targetBright","23","1","432"
"109","3","8","compatibletest1","attributeA","18","1","577"
"109","3","9","compatibletest1","targetAleft","18","1","650"
"109","3","10","compatibletest1","attributeA","18","1","448"
"109","3","11","compatibletest1","targetAleft","18","1","407"
"109","3","12","compatibletest1","attributeB","23","1","482"
"109","3","13","compatibletest1","targetAleft","18","1","556"
"109","3","14","compatibletest1","attributeB","23","1","611"
"109","3","15","compatibletest1","targetBright","23","1","594"
"109","3","16","compatibletest1","attributeA","18","1","751"
"109","3","17","compatibletest1","targetBright","23","1","609"
"109","3","18","compatibletest1","attributeB","23","1","449"
"109","3","19","compatibletest1","targetBright","23","1","490"
"109","3","20","compatibletest1","attributeA","18","0","820"
"109","3","21","compatibletest1","targetAleft","18","1","589"
"109","5","1","compatibletest2","attributeA","18","1","943"
"109","5","2","compatibletest2","targetBright","23","1","565"
"109","5","3","compatibletest2","attributeA","18","1","794"
"109","5","4","compatibletest2","targetBright","23","1","608"
"109","5","5","compatibletest2","attributeB","23","1","581"
"109","5","6","compatibletest2","targetAleft","18","1","862"
"109","5","7","compatibletest2","attributeA","18","0","880"
"109","5","8","compatibletest2","targetAleft","18","1","271"
"109","5","9","compatibletest2","attributeB","23","1","633"
"109","5","10","compatibletest2","targetBright","23","1","587"
"109","5","11","compatibletest2","attributeB","23","1","492"
"109","5","12","compatibletest2","targetAleft","18","1","449"
"109","5","13","compatibletest2","attributeA","18","1","467"
"109","5","14","compatibletest2","targetAleft","18","1","398"
"109","5","15","compatibletest2","attributeB","23","1","418"
"109","5","16","compatibletest2","targetAleft","18","1","442"
"109","5","17","compatibletest2","attributeB","23","1","547"
"109","5","18","compatibletest2","targetBright","23","1","660"
"109","5","19","compatibletest2","attributeA","18","1","790"
"109","5","20","compatibletest2","targetAleft","18","1","479"
"109","5","21","compatibletest2","attributeB","23","1","487"
"109","5","22","compatibletest2","targetBright","23","1","681"
"109","5","23","compatibletest2","attributeA","18","1","654"
"109","5","24","compatibletest2","targetBright","23","1","600"
"109","5","25","compatibletest2","attributeA","18","0","737"
"109","5","26","compatibletest2","targetBright","23","1","499"
"109","5","27","compatibletest2","attributeA","18","1","779"
"109","5","28","compatibletest2","targetAleft","18","1","416"
"109","5","29","compatibletest2","attributeB","23","1","511"
"109","5","30","compatibletest2","targetAleft","18","1","520"
"109","5","31","compatibletest2","attributeB","23","0","943"
"109","5","32","compatibletest2","targetAleft","18","0","762"
"109","5","33","compatibletest2","attributeB","23","1","2512"
"109","5","34","compatibletest2","targetBright","23","1","624"
"109","5","35","compatibletest2","attributeA","18","1","968"
"109","5","36","compatibletest2","targetAleft","18","1","401"
"109","5","37","compatibletest2","attributeA","18","1","417"
"109","5","38","compatibletest2","targetBright","23","1","397"
"109","5","39","compatibletest2","attributeB","23","1","395"
"109","5","40","compatibletest2","targetBright","23","1","382"
"109","6","2","targetincompatiblepractice","targetBleft","18","1","1487"
"109","6","3","targetincompatiblepractice","targetBleft","18","1","680"
"109","6","4","targetincompatiblepractice","targetBleft","18","1","387"
"109","6","5","targetincompatiblepractice","targetBleft","18","1","408"
"109","6","6","targetincompatiblepractice","targetAright","23","1","470"
"109","6","7","targetincompatiblepractice","targetBleft","18","1","463"
"109","6","8","targetincompatiblepractice","targetBleft","18","1","420"
"109","6","9","targetincompatiblepractice","targetBleft","18","1","402"
"109","6","10","targetincompatiblepractice","targetBleft","18","1","445"
"109","6","11","targetincompatiblepractice","targetAright","23","1","514"
"109","6","12","targetincompatiblepractice","targetBleft","18","1","563"
"109","6","13","targetincompatiblepractice","targetAright","23","0","752"
"109","6","14","targetincompatiblepractice","targetBleft","18","1","576"
"109","6","15","targetincompatiblepractice","targetAright","23","1","546"
"109","6","16","targetincompatiblepractice","targetAright","23","1","482"
"109","6","17","targetincompatiblepractice","targetAright","23","1","465"
"109","6","18","targetincompatiblepractice","targetAright","23","1","470"
"109","6","19","targetincompatiblepractice","targetAright","23","1","428"
"109","6","20","targetincompatiblepractice","targetAright","23","1","458"
"109","6","21","targetincompatiblepractice","targetAright","23","1","464"
"109","7","2","incompatibletest1","attributeB","23","0","1622"
"109","7","3","incompatibletest1","targetBleft","18","1","985"
"109","7","4","incompatibletest1","attributeA","18","1","720"
"109","7","5","incompatibletest1","targetAright","23","1","880"
"109","7","6","incompatibletest1","attributeA","18","1","830"
"109","7","7","incompatibletest1","targetBleft","18","1","838"
"109","7","8","incompatibletest1","attributeB","23","1","913"
"109","7","9","incompatibletest1","targetBleft","18","1","600"
"109","7","10","incompatibletest1","attributeB","23","1","836"
"109","7","11","incompatibletest1","targetAright","23","1","823"
"109","7","12","incompatibletest1","attributeA","18","0","963"
"109","7","13","incompatibletest1","targetAright","23","0","1281"
"109","7","14","incompatibletest1","attributeA","18","0","1386"
"109","7","15","incompatibletest1","targetAright","23","0","750"
"109","7","16","incompatibletest1","attributeA","18","1","921"
"109","7","17","incompatibletest1","targetAright","23","1","888"
"109","7","18","incompatibletest1","attributeB","23","1","1358"
"109","7","19","incompatibletest1","targetBleft","18","1","982"
"109","7","20","incompatibletest1","attributeB","23","1","1238"
"109","7","21","incompatibletest1","targetBleft","18","1","931"
"109","9","1","incompatibletest2","attributeA","18","1","1367"
"109","9","2","incompatibletest2","targetAright","23","1","936"
"109","9","3","incompatibletest2","attributeB","23","1","842"
"109","9","4","incompatibletest2","targetBleft","18","1","771"
"109","9","5","incompatibletest2","attributeA","18","1","917"
"109","9","6","incompatibletest2","targetBleft","18","1","583"
"109","9","7","incompatibletest2","attributeA","18","1","893"
"109","9","8","incompatibletest2","targetAright","23","1","804"
"109","9","9","incompatibletest2","attributeB","23","1","908"
"109","9","10","incompatibletest2","targetBleft","18","1","952"
"109","9","11","incompatibletest2","attributeB","23","1","1159"
"109","9","12","incompatibletest2","targetBleft","18","1","1179"
"109","9","13","incompatibletest2","attributeB","23","1","1979"
"109","9","14","incompatibletest2","targetAright","23","1","699"
"109","9","15","incompatibletest2","attributeB","23","1","2048"
"109","9","16","incompatibletest2","targetBleft","18","1","1720"
"109","9","17","incompatibletest2","attributeA","18","1","838"
"109","9","18","incompatibletest2","targetAright","23","1","679"
"109","9","19","incompatibletest2","attributeB","23","1","808"
"109","9","20","incompatibletest2","targetAright","23","0","1318"
"109","9","21","incompatibletest2","attributeB","23","1","1005"
"109","9","22","incompatibletest2","targetAright","23","1","843"
"109","9","23","incompatibletest2","attributeB","23","1","1986"
"109","9","24","incompatibletest2","targetAright","23","1","1083"
"109","9","25","incompatibletest2","attributeA","18","1","1255"
"109","9","26","incompatibletest2","targetBleft","18","0","1113"
"109","9","27","incompatibletest2","attributeB","23","1","851"
"109","9","28","incompatibletest2","targetAright","23","1","702"
"109","9","29","incompatibletest2","attributeB","23","1","699"
"109","9","30","incompatibletest2","targetBleft","18","1","759"
"109","9","31","incompatibletest2","attributeA","18","1","882"
"109","9","32","incompatibletest2","targetAright","23","1","853"
"109","9","33","incompatibletest2","attributeA","18","1","821"
"109","9","34","incompatibletest2","targetBleft","18","0","1121"
"109","9","35","incompatibletest2","attributeA","18","1","733"
"109","9","36","incompatibletest2","targetAright","23","1","862"
"109","9","37","incompatibletest2","attributeA","18","1","944"
"109","9","38","incompatibletest2","targetBleft","18","1","876"
"109","9","39","incompatibletest2","attributeA","18","1","772"
"109","9","40","incompatibletest2","targetBleft","18","1","541"
"109","1","1","racism_scale","likert_scale","3",NA,NA
"109","1","2","racism_scale","likert_scale","4",NA,NA
"109","1","3","racism_scale","likert_scale","2",NA,NA
"109","1","4","racism_scale","likert_scale","2",NA,NA
"109","1","5","racism_scale","likert_scale","2",NA,NA
"109","1","6","racism_scale","likert_scale","4",NA,NA
"109","1","7","racism_scale","likert_scale","3",NA,NA
"109","1","1","ratings","images","5",NA,NA
"109","1","2","ratings","images","5",NA,NA
"109","1","3","ratings","images","4",NA,NA
"109","1","4","ratings","images","6",NA,NA
"109","1","5","ratings","images","5",NA,NA
"109","1","6","ratings","images","4",NA,NA
"109","1","2","practice_compatibletest","attributeB","23","1","1301"
"109","1","3","practice_compatibletest","attributeA","18","1","642"
"109","1","4","practice_compatibletest","attributeA","18","1","1107"
"109","1","5","practice_compatibletest","attributeB","23","1","544"
"109","1","6","practice_compatibletest","attributeB","23","1","590"
"109","1","7","practice_compatibletest","attributeA","18","1","647"
"109","1","8","practice_compatibletest","attributeA","18","1","802"
"109","1","9","practice_compatibletest","attributeB","23","1","800"
"109","1","10","practice_compatibletest","attributeA","18","1","750"
