"participant","item","accuracy","response_categorisation","rt","trial_type","IAT_condition","block_order","task_order","gender","age","modern_racism_scale_total","IAT_exclude_based_on_fast_trials"
730072246,"GunBlack",1,"Hit",673,"gun","Flowers-Insects IAT","incongruent","ratings first","male",21,20,TRUE
730072246,"GunBlack",1,"Hit",670,"gun","Flowers-Insects IAT","incongruent","ratings first","male",21,20,TRUE
730072246,"ObjectBlack",1,"CR",575,"object","Flowers-Insects IAT","incongruent","ratings first","male",21,20,TRUE
730072246,"ObjectBlack",1,"CR",724,"object","Flowers-Insects IAT","incongruent","ratings first","male",21,20,TRUE
730072246,"GunBlack",1,"Hit",680,"gun","Flowers-Insects IAT","incongruent","ratings first","male",21,20,TRUE
730072246,"GunBlack",1,"Hit",723,"gun","Flowers-Insects IAT","incongruent","ratings first","male",21,20,TRUE
730072246,"ObjectBlack",1,"CR",699,"object","Flowers-Insects IAT","incongruent","ratings first","male",21,20,TRUE
730072246,"ObjectBlack",0,"FA",536,"object","Flowers-Insects IAT","incongruent","ratings first","male",21,20,TRUE
730072246,"ObjectBlack",1,"CR",738,"object","Flowers-Insects IAT","incongruent","ratings first","male",21,20,TRUE
730072246,"ObjectBlack",1,"CR",718,"object","Flowers-Insects IAT","incongruent","ratings first","male",21,20,TRUE
730072246,"ObjectBlack",0,"FA",816,"object","Flowers-Insects IAT","incongruent","ratings first","male",21,20,TRUE
730072246,"ObjectBlack",1,"CR",838,"object","Flowers-Insects IAT","incongruent","ratings first","male",21,20,TRUE
730072246,"GunBlack",0,"Miss",690,"gun","Flowers-Insects IAT","incongruent","ratings first","male",21,20,TRUE
730072246,"GunBlack",0,"Miss",637,"gun","Flowers-Insects IAT","incongruent","ratings first","male",21,20,TRUE
730072246,"GunBlack",1,"Hit",623,"gun","Flowers-Insects IAT","incongruent","ratings first","male",21,20,TRUE
730072246,"GunBlack",1,"Hit",769,"gun","Flowers-Insects IAT","incongruent","ratings first","male",21,20,TRUE
730072246,"GunBlack",1,"Hit",810,"gun","Flowers-Insects IAT","incongruent","ratings first","male",21,20,TRUE
730072246,"GunBlack",1,"Hit",706,"gun","Flowers-Insects IAT","incongruent","ratings first","male",21,20,TRUE
730072246,"GunBlack",1,"Hit",625,"gun","Flowers-Insects IAT","incongruent","ratings first","male",21,20,TRUE
730072246,"ObjectBlack",1,"CR",647,"object","Flowers-Insects IAT","incongruent","ratings first","male",21,20,TRUE
730072246,"GunBlack",1,"Hit",592,"gun","Flowers-Insects IAT","incongruent","ratings first","male",21,20,TRUE
730072246,"GunBlack",1,"Hit",604,"gun","Flowers-Insects IAT","incongruent","ratings first","male",21,20,TRUE
730072246,"GunBlack",1,"Hit",618,"gun","Flowers-Insects IAT","incongruent","ratings first","male",21,20,TRUE
730072246,"ObjectBlack",1,"CR",764,"object","Flowers-Insects IAT","incongruent","ratings first","male",21,20,TRUE
730072246,"GunBlack",1,"Hit",645,"gun","Flowers-Insects IAT","incongruent","ratings first","male",21,20,TRUE
730072246,"GunBlack",1,"Hit",584,"gun","Flowers-Insects IAT","incongruent","ratings first","male",21,20,TRUE
730072246,"GunBlack",1,"Hit",777,"gun","Flowers-Insects IAT","incongruent","ratings first","male",21,20,TRUE
730072246,"GunBlack",1,"Hit",724,"gun","Flowers-Insects IAT","incongruent","ratings first","male",21,20,TRUE
730072246,"ObjectBlack",1,"CR",748,"object","Flowers-Insects IAT","incongruent","ratings first","male",21,20,TRUE
730072246,"GunBlack",1,"Hit",705,"gun","Flowers-Insects IAT","incongruent","ratings first","male",21,20,TRUE
730072246,"ObjectBlack",0,"FA",725,"object","Flowers-Insects IAT","incongruent","ratings first","male",21,20,TRUE
730072246,"GunBlack",0,"Miss",824,"gun","Flowers-Insects IAT","incongruent","ratings first","male",21,20,TRUE
730072246,"GunBlack",0,"Miss",755,"gun","Flowers-Insects IAT","incongruent","ratings first","male",21,20,TRUE
730072246,"ObjectBlack",0,"FA",653,"object","Flowers-Insects IAT","incongruent","ratings first","male",21,20,TRUE
730072246,"GunBlack",0,"Miss",687,"gun","Flowers-Insects IAT","incongruent","ratings first","male",21,20,TRUE
730072246,"ObjectBlack",1,"CR",842,"object","Flowers-Insects IAT","incongruent","ratings first","male",21,20,TRUE
730072246,"ObjectBlack",0,"FA",743,"object","Flowers-Insects IAT","incongruent","ratings first","male",21,20,TRUE
730072246,"GunBlack",1,"Hit",580,"gun","Flowers-Insects IAT","incongruent","ratings first","male",21,20,TRUE
730072246,"ObjectBlack",1,"CR",833,"object","Flowers-Insects IAT","incongruent","ratings first","male",21,20,TRUE
730072246,"ObjectBlack",1,"CR",743,"object","Flowers-Insects IAT","incongruent","ratings first","male",21,20,TRUE
730072246,"GunBlack",1,"Hit",673,"gun","Flowers-Insects IAT","incongruent","ratings first","male",21,20,TRUE
730072246,"GunBlack",1,"Hit",594,"gun","Flowers-Insects IAT","incongruent","ratings first","male",21,20,TRUE
730072246,"GunBlack",1,"Hit",698,"gun","Flowers-Insects IAT","incongruent","ratings first","male",21,20,TRUE
730072246,"ObjectBlack",1,"CR",782,"object","Flowers-Insects IAT","incongruent","ratings first","male",21,20,TRUE
730072246,"ObjectBlack",1,"CR",632,"object","Flowers-Insects IAT","incongruent","ratings first","male",21,20,TRUE
730072246,"ObjectBlack",1,"CR",554,"object","Flowers-Insects IAT","incongruent","ratings first","male",21,20,TRUE
730072246,"ObjectBlack",1,"CR",648,"object","Flowers-Insects IAT","incongruent","ratings first","male",21,20,TRUE
730072246,"ObjectBlack",1,"CR",686,"object","Flowers-Insects IAT","incongruent","ratings first","male",21,20,TRUE
730072246,"GunBlack",0,"Miss",377,"gun","Flowers-Insects IAT","incongruent","ratings first","male",21,20,TRUE
730072246,"ObjectBlack",1,"CR",802,"object","Flowers-Insects IAT","incongruent","ratings first","male",21,20,TRUE
730072246,"GunBlack",1,"Hit",662,"gun","Flowers-Insects IAT","incongruent","ratings first","male",21,20,TRUE
730072246,"GunBlack",1,"Hit",694,"gun","Flowers-Insects IAT","incongruent","ratings first","male",21,20,TRUE
730072246,"ObjectBlack",0,"FA",20,"object","Flowers-Insects IAT","incongruent","ratings first","male",21,20,TRUE
730072246,"GunBlack",1,"Hit",682,"gun","Flowers-Insects IAT","incongruent","ratings first","male",21,20,TRUE
730072246,"GunBlack",1,"Hit",445,"gun","Flowers-Insects IAT","incongruent","ratings first","male",21,20,TRUE
730072246,"ObjectBlack",1,"CR",706,"object","Flowers-Insects IAT","incongruent","ratings first","male",21,20,TRUE
730072246,"GunBlack",0,"Miss",758,"gun","Flowers-Insects IAT","incongruent","ratings first","male",21,20,TRUE
730072246,"GunBlack",1,"Hit",576,"gun","Flowers-Insects IAT","incongruent","ratings first","male",21,20,TRUE
730072246,"ObjectBlack",1,"CR",672,"object","Flowers-Insects IAT","incongruent","ratings first","male",21,20,TRUE
182940083,"GunBlack",1,"Hit",679,"gun","Race IAT","congruent","SCIAT first","female",49,16,FALSE
182940083,"ObjectBlack",1,"CR",663,"object","Race IAT","congruent","SCIAT first","female",49,16,FALSE
182940083,"ObjectBlack",1,"CR",724,"object","Race IAT","congruent","SCIAT first","female",49,16,FALSE
182940083,"GunBlack",0,"Miss",740,"gun","Race IAT","congruent","SCIAT first","female",49,16,FALSE
182940083,"GunBlack",1,"Hit",735,"gun","Race IAT","congruent","SCIAT first","female",49,16,FALSE
182940083,"GunBlack",1,"Hit",555,"gun","Race IAT","congruent","SCIAT first","female",49,16,FALSE
182940083,"GunBlack",1,"Hit",539,"gun","Race IAT","congruent","SCIAT first","female",49,16,FALSE
182940083,"ObjectBlack",1,"CR",746,"object","Race IAT","congruent","SCIAT first","female",49,16,FALSE
182940083,"GunBlack",1,"Hit",668,"gun","Race IAT","congruent","SCIAT first","female",49,16,FALSE
182940083,"GunBlack",1,"Hit",713,"gun","Race IAT","congruent","SCIAT first","female",49,16,FALSE
182940083,"GunBlack",1,"Hit",534,"gun","Race IAT","congruent","SCIAT first","female",49,16,FALSE
182940083,"ObjectBlack",1,"CR",804,"object","Race IAT","congruent","SCIAT first","female",49,16,FALSE
182940083,"GunBlack",1,"Hit",575,"gun","Race IAT","congruent","SCIAT first","female",49,16,FALSE
182940083,"GunBlack",1,"Hit",561,"gun","Race IAT","congruent","SCIAT first","female",49,16,FALSE
182940083,"GunBlack",1,"Hit",659,"gun","Race IAT","congruent","SCIAT first","female",49,16,FALSE
182940083,"GunBlack",1,"Hit",608,"gun","Race IAT","congruent","SCIAT first","female",49,16,FALSE
182940083,"ObjectBlack",1,"CR",696,"object","Race IAT","congruent","SCIAT first","female",49,16,FALSE
182940083,"GunBlack",1,"Hit",778,"gun","Race IAT","congruent","SCIAT first","female",49,16,FALSE
182940083,"GunBlack",1,"Hit",719,"gun","Race IAT","congruent","SCIAT first","female",49,16,FALSE
182940083,"ObjectBlack",1,"CR",792,"object","Race IAT","congruent","SCIAT first","female",49,16,FALSE
182940083,"ObjectBlack",1,"CR",714,"object","Race IAT","congruent","SCIAT first","female",49,16,FALSE
182940083,"ObjectBlack",1,"CR",685,"object","Race IAT","congruent","SCIAT first","female",49,16,FALSE
182940083,"GunBlack",1,"Hit",593,"gun","Race IAT","congruent","SCIAT first","female",49,16,FALSE
182940083,"GunBlack",1,"Hit",620,"gun","Race IAT","congruent","SCIAT first","female",49,16,FALSE
182940083,"ObjectBlack",1,"CR",664,"object","Race IAT","congruent","SCIAT first","female",49,16,FALSE
182940083,"ObjectBlack",1,"CR",673,"object","Race IAT","congruent","SCIAT first","female",49,16,FALSE
182940083,"ObjectBlack",1,"CR",785,"object","Race IAT","congruent","SCIAT first","female",49,16,FALSE
182940083,"ObjectBlack",1,"CR",605,"object","Race IAT","congruent","SCIAT first","female",49,16,FALSE
182940083,"GunBlack",1,"Hit",803,"gun","Race IAT","congruent","SCIAT first","female",49,16,FALSE
182940083,"ObjectBlack",1,"CR",759,"object","Race IAT","congruent","SCIAT first","female",49,16,FALSE
182940083,"ObjectBlack",1,"CR",651,"object","Race IAT","congruent","SCIAT first","female",49,16,FALSE
182940083,"ObjectBlack",1,"CR",681,"object","Race IAT","congruent","SCIAT first","female",49,16,FALSE
182940083,"ObjectBlack",1,"CR",705,"object","Race IAT","congruent","SCIAT first","female",49,16,FALSE
182940083,"ObjectBlack",1,"CR",815,"object","Race IAT","congruent","SCIAT first","female",49,16,FALSE
182940083,"GunBlack",1,"Hit",470,"gun","Race IAT","congruent","SCIAT first","female",49,16,FALSE
182940083,"GunBlack",1,"Hit",628,"gun","Race IAT","congruent","SCIAT first","female",49,16,FALSE
182940083,"ObjectBlack",1,"CR",632,"object","Race IAT","congruent","SCIAT first","female",49,16,FALSE
182940083,"ObjectBlack",1,"CR",613,"object","Race IAT","congruent","SCIAT first","female",49,16,FALSE
182940083,"ObjectBlack",1,"CR",504,"object","Race IAT","congruent","SCIAT first","female",49,16,FALSE
182940083,"GunBlack",1,"Hit",700,"gun","Race IAT","congruent","SCIAT first","female",49,16,FALSE
182940083,"GunBlack",0,"Miss",706,"gun","Race IAT","congruent","SCIAT first","female",49,16,FALSE
182940083,"ObjectBlack",1,"CR",736,"object","Race IAT","congruent","SCIAT first","female",49,16,FALSE
182940083,"ObjectBlack",1,"CR",690,"object","Race IAT","congruent","SCIAT first","female",49,16,FALSE
182940083,"GunBlack",1,"Hit",618,"gun","Race IAT","congruent","SCIAT first","female",49,16,FALSE
182940083,"GunBlack",1,"Hit",637,"gun","Race IAT","congruent","SCIAT first","female",49,16,FALSE
182940083,"GunBlack",1,"Hit",648,"gun","Race IAT","congruent","SCIAT first","female",49,16,FALSE
182940083,"ObjectBlack",1,"CR",801,"object","Race IAT","congruent","SCIAT first","female",49,16,FALSE
182940083,"GunBlack",1,"Hit",545,"gun","Race IAT","congruent","SCIAT first","female",49,16,FALSE
182940083,"GunBlack",1,"Hit",627,"gun","Race IAT","congruent","SCIAT first","female",49,16,FALSE
182940083,"ObjectBlack",1,"CR",802,"object","Race IAT","congruent","SCIAT first","female",49,16,FALSE
182940083,"ObjectBlack",1,"CR",723,"object","Race IAT","congruent","SCIAT first","female",49,16,FALSE
182940083,"GunBlack",1,"Hit",815,"gun","Race IAT","congruent","SCIAT first","female",49,16,FALSE
182940083,"GunBlack",1,"Hit",584,"gun","Race IAT","congruent","SCIAT first","female",49,16,FALSE
182940083,"ObjectBlack",1,"CR",763,"object","Race IAT","congruent","SCIAT first","female",49,16,FALSE
182940083,"GunBlack",1,"Hit",515,"gun","Race IAT","congruent","SCIAT first","female",49,16,FALSE
182940083,"ObjectBlack",1,"CR",654,"object","Race IAT","congruent","SCIAT first","female",49,16,FALSE
182940083,"ObjectBlack",1,"CR",784,"object","Race IAT","congruent","SCIAT first","female",49,16,FALSE
182940083,"GunBlack",1,"Hit",589,"gun","Race IAT","congruent","SCIAT first","female",49,16,FALSE
182940083,"ObjectBlack",1,"CR",701,"object","Race IAT","congruent","SCIAT first","female",49,16,FALSE
182940083,"ObjectBlack",1,"CR",822,"object","Race IAT","congruent","SCIAT first","female",49,16,FALSE
182940083,"ObjectBlack",1,"CR",656,"object","Race IAT","congruent","SCIAT first","female",49,16,FALSE
182940083,"GunBlack",1,"Hit",553,"gun","Race IAT","congruent","SCIAT first","female",49,16,FALSE
182940083,"GunBlack",0,"Miss",693,"gun","Race IAT","congruent","SCIAT first","female",49,16,FALSE
182940083,"GunBlack",1,"Hit",696,"gun","Race IAT","congruent","SCIAT first","female",49,16,FALSE
182940083,"GunBlack",1,"Hit",830,"gun","Race IAT","congruent","SCIAT first","female",49,16,FALSE
182940083,"GunBlack",1,"Hit",615,"gun","Race IAT","congruent","SCIAT first","female",49,16,FALSE
182940083,"ObjectBlack",1,"CR",667,"object","Race IAT","congruent","SCIAT first","female",49,16,FALSE
182940083,"ObjectBlack",1,"CR",694,"object","Race IAT","congruent","SCIAT first","female",49,16,FALSE
182940083,"ObjectBlack",1,"CR",663,"object","Race IAT","congruent","SCIAT first","female",49,16,FALSE
182940083,"ObjectBlack",1,"CR",637,"object","Race IAT","congruent","SCIAT first","female",49,16,FALSE
182940083,"ObjectBlack",1,"CR",750,"object","Race IAT","congruent","SCIAT first","female",49,16,FALSE
182940083,"GunBlack",1,"Hit",670,"gun","Race IAT","congruent","SCIAT first","female",49,16,FALSE
182940083,"ObjectBlack",1,"CR",710,"object","Race IAT","congruent","SCIAT first","female",49,16,FALSE
27226757,"ObjectBlack",1,"CR",752,"object","Flowers-Insects IAT","congruent","ratings first","female",25,14,FALSE
27226757,"ObjectBlack",1,"CR",735,"object","Flowers-Insects IAT","congruent","ratings first","female",25,14,FALSE
27226757,"GunBlack",1,"Hit",600,"gun","Flowers-Insects IAT","congruent","ratings first","female",25,14,FALSE
27226757,"GunBlack",1,"Hit",598,"gun","Flowers-Insects IAT","congruent","ratings first","female",25,14,FALSE
27226757,"GunBlack",0,"Miss",598,"gun","Flowers-Insects IAT","congruent","ratings first","female",25,14,FALSE
27226757,"ObjectBlack",1,"CR",716,"object","Flowers-Insects IAT","congruent","ratings first","female",25,14,FALSE
27226757,"ObjectBlack",0,"FA",681,"object","Flowers-Insects IAT","congruent","ratings first","female",25,14,FALSE
27226757,"GunBlack",1,"Hit",798,"gun","Flowers-Insects IAT","congruent","ratings first","female",25,14,FALSE
27226757,"ObjectBlack",1,"CR",661,"object","Flowers-Insects IAT","congruent","ratings first","female",25,14,FALSE
27226757,"ObjectBlack",1,"CR",719,"object","Flowers-Insects IAT","congruent","ratings first","female",25,14,FALSE
27226757,"GunBlack",1,"Hit",597,"gun","Flowers-Insects IAT","congruent","ratings first","female",25,14,FALSE
27226757,"GunBlack",0,"Miss",667,"gun","Flowers-Insects IAT","congruent","ratings first","female",25,14,FALSE
27226757,"ObjectBlack",0,"FA",667,"object","Flowers-Insects IAT","congruent","ratings first","female",25,14,FALSE
27226757,"GunBlack",1,"Hit",588,"gun","Flowers-Insects IAT","congruent","ratings first","female",25,14,FALSE
27226757,"GunBlack",1,"Hit",614,"gun","Flowers-Insects IAT","congruent","ratings first","female",25,14,FALSE
27226757,"ObjectBlack",1,"CR",645,"object","Flowers-Insects IAT","congruent","ratings first","female",25,14,FALSE
27226757,"GunBlack",1,"Hit",829,"gun","Flowers-Insects IAT","congruent","ratings first","female",25,14,FALSE
27226757,"GunBlack",0,"Miss",599,"gun","Flowers-Insects IAT","congruent","ratings first","female",25,14,FALSE
27226757,"ObjectBlack",1,"CR",767,"object","Flowers-Insects IAT","congruent","ratings first","female",25,14,FALSE
27226757,"ObjectBlack",1,"CR",737,"object","Flowers-Insects IAT","congruent","ratings first","female",25,14,FALSE
27226757,"GunBlack",1,"Hit",839,"gun","Flowers-Insects IAT","congruent","ratings first","female",25,14,FALSE
27226757,"ObjectBlack",1,"CR",719,"object","Flowers-Insects IAT","congruent","ratings first","female",25,14,FALSE
27226757,"GunBlack",0,"Miss",640,"gun","Flowers-Insects IAT","congruent","ratings first","female",25,14,FALSE
27226757,"GunBlack",1,"Hit",596,"gun","Flowers-Insects IAT","congruent","ratings first","female",25,14,FALSE
27226757,"ObjectBlack",1,"CR",741,"object","Flowers-Insects IAT","congruent","ratings first","female",25,14,FALSE
27226757,"ObjectBlack",1,"CR",736,"object","Flowers-Insects IAT","congruent","ratings first","female",25,14,FALSE
27226757,"ObjectBlack",1,"CR",823,"object","Flowers-Insects IAT","congruent","ratings first","female",25,14,FALSE
27226757,"ObjectBlack",1,"CR",722,"object","Flowers-Insects IAT","congruent","ratings first","female",25,14,FALSE
27226757,"ObjectBlack",1,"CR",680,"object","Flowers-Insects IAT","congruent","ratings first","female",25,14,FALSE
27226757,"ObjectBlack",1,"CR",722,"object","Flowers-Insects IAT","congruent","ratings first","female",25,14,FALSE
27226757,"GunBlack",0,"Miss",710,"gun","Flowers-Insects IAT","congruent","ratings first","female",25,14,FALSE
27226757,"GunBlack",1,"Hit",802,"gun","Flowers-Insects IAT","congruent","ratings first","female",25,14,FALSE
27226757,"ObjectBlack",1,"CR",793,"object","Flowers-Insects IAT","congruent","ratings first","female",25,14,FALSE
27226757,"GunBlack",1,"Hit",689,"gun","Flowers-Insects IAT","congruent","ratings first","female",25,14,FALSE
27226757,"ObjectBlack",1,"CR",809,"object","Flowers-Insects IAT","congruent","ratings first","female",25,14,FALSE
27226757,"ObjectBlack",1,"CR",727,"object","Flowers-Insects IAT","congruent","ratings first","female",25,14,FALSE
27226757,"GunBlack",1,"Hit",688,"gun","Flowers-Insects IAT","congruent","ratings first","female",25,14,FALSE
27226757,"GunBlack",0,"Miss",728,"gun","Flowers-Insects IAT","congruent","ratings first","female",25,14,FALSE
27226757,"GunBlack",0,"Miss",766,"gun","Flowers-Insects IAT","congruent","ratings first","female",25,14,FALSE
27226757,"ObjectBlack",0,"FA",781,"object","Flowers-Insects IAT","congruent","ratings first","female",25,14,FALSE
27226757,"ObjectBlack",1,"CR",672,"object","Flowers-Insects IAT","congruent","ratings first","female",25,14,FALSE
27226757,"ObjectBlack",1,"CR",706,"object","Flowers-Insects IAT","congruent","ratings first","female",25,14,FALSE
27226757,"ObjectBlack",1,"CR",651,"object","Flowers-Insects IAT","congruent","ratings first","female",25,14,FALSE
27226757,"GunBlack",1,"Hit",545,"gun","Flowers-Insects IAT","congruent","ratings first","female",25,14,FALSE
27226757,"ObjectBlack",1,"CR",733,"object","Flowers-Insects IAT","congruent","ratings first","female",25,14,FALSE
27226757,"ObjectBlack",1,"CR",817,"object","Flowers-Insects IAT","congruent","ratings first","female",25,14,FALSE
27226757,"GunBlack",1,"Hit",741,"gun","Flowers-Insects IAT","congruent","ratings first","female",25,14,FALSE
27226757,"GunBlack",1,"Hit",656,"gun","Flowers-Insects IAT","congruent","ratings first","female",25,14,FALSE
27226757,"GunBlack",1,"Hit",722,"gun","Flowers-Insects IAT","congruent","ratings first","female",25,14,FALSE
27226757,"GunBlack",1,"Hit",773,"gun","Flowers-Insects IAT","congruent","ratings first","female",25,14,FALSE
27226757,"GunBlack",1,"Hit",813,"gun","Flowers-Insects IAT","congruent","ratings first","female",25,14,FALSE
27226757,"GunBlack",1,"Hit",714,"gun","Flowers-Insects IAT","congruent","ratings first","female",25,14,FALSE
27226757,"GunBlack",1,"Hit",642,"gun","Flowers-Insects IAT","congruent","ratings first","female",25,14,FALSE
27226757,"GunBlack",1,"Hit",597,"gun","Flowers-Insects IAT","congruent","ratings first","female",25,14,FALSE
27226757,"ObjectBlack",1,"CR",687,"object","Flowers-Insects IAT","congruent","ratings first","female",25,14,FALSE
27226757,"GunBlack",1,"Hit",826,"gun","Flowers-Insects IAT","congruent","ratings first","female",25,14,FALSE
27226757,"GunBlack",1,"Hit",769,"gun","Flowers-Insects IAT","congruent","ratings first","female",25,14,FALSE
27226757,"GunBlack",1,"Hit",600,"gun","Flowers-Insects IAT","congruent","ratings first","female",25,14,FALSE
27226757,"GunBlack",1,"Hit",593,"gun","Flowers-Insects IAT","congruent","ratings first","female",25,14,FALSE
27226757,"ObjectBlack",1,"CR",652,"object","Flowers-Insects IAT","congruent","ratings first","female",25,14,FALSE
27226757,"ObjectBlack",1,"CR",758,"object","Flowers-Insects IAT","congruent","ratings first","female",25,14,FALSE
27226757,"GunBlack",1,"Hit",657,"gun","Flowers-Insects IAT","congruent","ratings first","female",25,14,FALSE
27226757,"GunBlack",1,"Hit",846,"gun","Flowers-Insects IAT","congruent","ratings first","female",25,14,FALSE
27226757,"GunBlack",1,"Hit",512,"gun","Flowers-Insects IAT","congruent","ratings first","female",25,14,FALSE
27226757,"ObjectBlack",1,"CR",758,"object","Flowers-Insects IAT","congruent","ratings first","female",25,14,FALSE
27226757,"GunBlack",1,"Hit",625,"gun","Flowers-Insects IAT","congruent","ratings first","female",25,14,FALSE
681508303,"ObjectBlack",1,"CR",727,"object","Flowers-Insects IAT","congruent","SCIAT first","male",30,24,FALSE
681508303,"GunBlack",1,"Hit",611,"gun","Flowers-Insects IAT","congruent","SCIAT first","male",30,24,FALSE
681508303,"ObjectBlack",1,"CR",677,"object","Flowers-Insects IAT","congruent","SCIAT first","male",30,24,FALSE
681508303,"GunBlack",1,"Hit",500,"gun","Flowers-Insects IAT","congruent","SCIAT first","male",30,24,FALSE
681508303,"GunBlack",1,"Hit",544,"gun","Flowers-Insects IAT","congruent","SCIAT first","male",30,24,FALSE
681508303,"GunBlack",1,"Hit",743,"gun","Flowers-Insects IAT","congruent","SCIAT first","male",30,24,FALSE
681508303,"GunBlack",1,"Hit",566,"gun","Flowers-Insects IAT","congruent","SCIAT first","male",30,24,FALSE
681508303,"GunBlack",1,"Hit",562,"gun","Flowers-Insects IAT","congruent","SCIAT first","male",30,24,FALSE
681508303,"ObjectBlack",1,"CR",716,"object","Flowers-Insects IAT","congruent","SCIAT first","male",30,24,FALSE
681508303,"ObjectBlack",1,"CR",758,"object","Flowers-Insects IAT","congruent","SCIAT first","male",30,24,FALSE
681508303,"ObjectBlack",1,"CR",776,"object","Flowers-Insects IAT","congruent","SCIAT first","male",30,24,FALSE
681508303,"ObjectBlack",1,"CR",652,"object","Flowers-Insects IAT","congruent","SCIAT first","male",30,24,FALSE
681508303,"GunBlack",1,"Hit",600,"gun","Flowers-Insects IAT","congruent","SCIAT first","male",30,24,FALSE
681508303,"ObjectBlack",1,"CR",737,"object","Flowers-Insects IAT","congruent","SCIAT first","male",30,24,FALSE
681508303,"GunBlack",1,"Hit",600,"gun","Flowers-Insects IAT","congruent","SCIAT first","male",30,24,FALSE
681508303,"ObjectBlack",1,"CR",839,"object","Flowers-Insects IAT","congruent","SCIAT first","male",30,24,FALSE
681508303,"GunBlack",1,"Hit",606,"gun","Flowers-Insects IAT","congruent","SCIAT first","male",30,24,FALSE
681508303,"ObjectBlack",1,"CR",619,"object","Flowers-Insects IAT","congruent","SCIAT first","male",30,24,FALSE
681508303,"GunBlack",1,"Hit",524,"gun","Flowers-Insects IAT","congruent","SCIAT first","male",30,24,FALSE
681508303,"ObjectBlack",1,"CR",574,"object","Flowers-Insects IAT","congruent","SCIAT first","male",30,24,FALSE
681508303,"ObjectBlack",1,"CR",773,"object","Flowers-Insects IAT","congruent","SCIAT first","male",30,24,FALSE
681508303,"GunBlack",1,"Hit",767,"gun","Flowers-Insects IAT","congruent","SCIAT first","male",30,24,FALSE
681508303,"ObjectBlack",1,"CR",745,"object","Flowers-Insects IAT","congruent","SCIAT first","male",30,24,FALSE
681508303,"GunBlack",1,"Hit",690,"gun","Flowers-Insects IAT","congruent","SCIAT first","male",30,24,FALSE
681508303,"ObjectBlack",1,"CR",782,"object","Flowers-Insects IAT","congruent","SCIAT first","male",30,24,FALSE
681508303,"GunBlack",1,"Hit",689,"gun","Flowers-Insects IAT","congruent","SCIAT first","male",30,24,FALSE
681508303,"GunBlack",1,"Hit",560,"gun","Flowers-Insects IAT","congruent","SCIAT first","male",30,24,FALSE
681508303,"GunBlack",1,"Hit",772,"gun","Flowers-Insects IAT","congruent","SCIAT first","male",30,24,FALSE
681508303,"ObjectBlack",1,"CR",766,"object","Flowers-Insects IAT","congruent","SCIAT first","male",30,24,FALSE
681508303,"ObjectBlack",1,"CR",621,"object","Flowers-Insects IAT","congruent","SCIAT first","male",30,24,FALSE
681508303,"ObjectBlack",1,"CR",674,"object","Flowers-Insects IAT","congruent","SCIAT first","male",30,24,FALSE
681508303,"GunBlack",1,"Hit",614,"gun","Flowers-Insects IAT","congruent","SCIAT first","male",30,24,FALSE
681508303,"GunBlack",1,"Hit",604,"gun","Flowers-Insects IAT","congruent","SCIAT first","male",30,24,FALSE
681508303,"ObjectBlack",1,"CR",683,"object","Flowers-Insects IAT","congruent","SCIAT first","male",30,24,FALSE
681508303,"ObjectBlack",1,"CR",650,"object","Flowers-Insects IAT","congruent","SCIAT first","male",30,24,FALSE
681508303,"ObjectBlack",1,"CR",724,"object","Flowers-Insects IAT","congruent","SCIAT first","male",30,24,FALSE
681508303,"ObjectBlack",1,"CR",664,"object","Flowers-Insects IAT","congruent","SCIAT first","male",30,24,FALSE
681508303,"GunBlack",1,"Hit",536,"gun","Flowers-Insects IAT","congruent","SCIAT first","male",30,24,FALSE
681508303,"ObjectBlack",1,"CR",636,"object","Flowers-Insects IAT","congruent","SCIAT first","male",30,24,FALSE
681508303,"GunBlack",1,"Hit",608,"gun","Flowers-Insects IAT","congruent","SCIAT first","male",30,24,FALSE
681508303,"ObjectBlack",1,"CR",596,"object","Flowers-Insects IAT","congruent","SCIAT first","male",30,24,FALSE
681508303,"ObjectBlack",1,"CR",800,"object","Flowers-Insects IAT","congruent","SCIAT first","male",30,24,FALSE
681508303,"GunBlack",1,"Hit",506,"gun","Flowers-Insects IAT","congruent","SCIAT first","male",30,24,FALSE
681508303,"ObjectBlack",1,"CR",648,"object","Flowers-Insects IAT","congruent","SCIAT first","male",30,24,FALSE
681508303,"GunBlack",1,"Hit",557,"gun","Flowers-Insects IAT","congruent","SCIAT first","male",30,24,FALSE
681508303,"ObjectBlack",1,"CR",672,"object","Flowers-Insects IAT","congruent","SCIAT first","male",30,24,FALSE
681508303,"ObjectBlack",1,"CR",711,"object","Flowers-Insects IAT","congruent","SCIAT first","male",30,24,FALSE
681508303,"ObjectBlack",1,"CR",660,"object","Flowers-Insects IAT","congruent","SCIAT first","male",30,24,FALSE
681508303,"GunBlack",1,"Hit",576,"gun","Flowers-Insects IAT","congruent","SCIAT first","male",30,24,FALSE
681508303,"GunBlack",1,"Hit",607,"gun","Flowers-Insects IAT","congruent","SCIAT first","male",30,24,FALSE
681508303,"ObjectBlack",1,"CR",551,"object","Flowers-Insects IAT","congruent","SCIAT first","male",30,24,FALSE
681508303,"ObjectBlack",1,"CR",659,"object","Flowers-Insects IAT","congruent","SCIAT first","male",30,24,FALSE
681508303,"GunBlack",1,"Hit",548,"gun","Flowers-Insects IAT","congruent","SCIAT first","male",30,24,FALSE
681508303,"GunBlack",1,"Hit",713,"gun","Flowers-Insects IAT","congruent","SCIAT first","male",30,24,FALSE
681508303,"GunBlack",1,"Hit",546,"gun","Flowers-Insects IAT","congruent","SCIAT first","male",30,24,FALSE
681508303,"GunBlack",1,"Hit",774,"gun","Flowers-Insects IAT","congruent","SCIAT first","male",30,24,FALSE
681508303,"GunBlack",1,"Hit",589,"gun","Flowers-Insects IAT","congruent","SCIAT first","male",30,24,FALSE
681508303,"GunBlack",1,"Hit",492,"gun","Flowers-Insects IAT","congruent","SCIAT first","male",30,24,FALSE
681508303,"ObjectBlack",1,"CR",691,"object","Flowers-Insects IAT","congruent","SCIAT first","male",30,24,FALSE
681508303,"ObjectBlack",1,"CR",637,"object","Flowers-Insects IAT","congruent","SCIAT first","male",30,24,FALSE
681508303,"ObjectBlack",1,"CR",577,"object","Flowers-Insects IAT","congruent","SCIAT first","male",30,24,FALSE
681508303,"GunBlack",1,"Hit",536,"gun","Flowers-Insects IAT","congruent","SCIAT first","male",30,24,FALSE
681508303,"ObjectBlack",1,"CR",737,"object","Flowers-Insects IAT","congruent","SCIAT first","male",30,24,FALSE
681508303,"ObjectBlack",1,"CR",662,"object","Flowers-Insects IAT","congruent","SCIAT first","male",30,24,FALSE
681508303,"ObjectBlack",1,"CR",611,"object","Flowers-Insects IAT","congruent","SCIAT first","male",30,24,FALSE
681508303,"GunBlack",1,"Hit",559,"gun","Flowers-Insects IAT","congruent","SCIAT first","male",30,24,FALSE
681508303,"GunBlack",1,"Hit",529,"gun","Flowers-Insects IAT","congruent","SCIAT first","male",30,24,FALSE
681508303,"ObjectBlack",1,"CR",642,"object","Flowers-Insects IAT","congruent","SCIAT first","male",30,24,FALSE
681508303,"GunBlack",1,"Hit",562,"gun","Flowers-Insects IAT","congruent","SCIAT first","male",30,24,FALSE
681508303,"ObjectBlack",1,"CR",656,"object","Flowers-Insects IAT","congruent","SCIAT first","male",30,24,FALSE
681508303,"GunBlack",1,"Hit",554,"gun","Flowers-Insects IAT","congruent","SCIAT first","male",30,24,FALSE
681508303,"GunBlack",1,"Hit",649,"gun","Flowers-Insects IAT","congruent","SCIAT first","male",30,24,FALSE
681508303,"GunBlack",1,"Hit",501,"gun","Flowers-Insects IAT","congruent","SCIAT first","male",30,24,FALSE
681508303,"GunBlack",1,"Hit",822,"gun","Flowers-Insects IAT","congruent","SCIAT first","male",30,24,FALSE
681508303,"ObjectBlack",1,"CR",684,"object","Flowers-Insects IAT","congruent","SCIAT first","male",30,24,FALSE
57250160,"ObjectBlack",1,"CR",544,"object","Flowers-Insects IAT","incongruent","SCIAT first","male",36,15,FALSE
57250160,"GunBlack",1,"Hit",539,"gun","Flowers-Insects IAT","incongruent","SCIAT first","male",36,15,FALSE
57250160,"ObjectBlack",1,"CR",617,"object","Flowers-Insects IAT","incongruent","SCIAT first","male",36,15,FALSE
57250160,"GunBlack",1,"Hit",466,"gun","Flowers-Insects IAT","incongruent","SCIAT first","male",36,15,FALSE
57250160,"GunBlack",1,"Hit",463,"gun","Flowers-Insects IAT","incongruent","SCIAT first","male",36,15,FALSE
57250160,"GunBlack",1,"Hit",746,"gun","Flowers-Insects IAT","incongruent","SCIAT first","male",36,15,FALSE
57250160,"GunBlack",1,"Hit",595,"gun","Flowers-Insects IAT","incongruent","SCIAT first","male",36,15,FALSE
57250160,"ObjectBlack",1,"CR",527,"object","Flowers-Insects IAT","incongruent","SCIAT first","male",36,15,FALSE
57250160,"GunBlack",1,"Hit",466,"gun","Flowers-Insects IAT","incongruent","SCIAT first","male",36,15,FALSE
57250160,"ObjectBlack",1,"CR",548,"object","Flowers-Insects IAT","incongruent","SCIAT first","male",36,15,FALSE
57250160,"ObjectBlack",1,"CR",629,"object","Flowers-Insects IAT","incongruent","SCIAT first","male",36,15,FALSE
57250160,"GunBlack",1,"Hit",506,"gun","Flowers-Insects IAT","incongruent","SCIAT first","male",36,15,FALSE
57250160,"ObjectBlack",1,"CR",674,"object","Flowers-Insects IAT","incongruent","SCIAT first","male",36,15,FALSE
57250160,"GunBlack",1,"Hit",502,"gun","Flowers-Insects IAT","incongruent","SCIAT first","male",36,15,FALSE
57250160,"GunBlack",1,"Hit",568,"gun","Flowers-Insects IAT","incongruent","SCIAT first","male",36,15,FALSE
57250160,"GunBlack",1,"Hit",548,"gun","Flowers-Insects IAT","incongruent","SCIAT first","male",36,15,FALSE
57250160,"GunBlack",1,"Hit",512,"gun","Flowers-Insects IAT","incongruent","SCIAT first","male",36,15,FALSE
57250160,"GunBlack",1,"Hit",552,"gun","Flowers-Insects IAT","incongruent","SCIAT first","male",36,15,FALSE
57250160,"ObjectBlack",1,"CR",544,"object","Flowers-Insects IAT","incongruent","SCIAT first","male",36,15,FALSE
57250160,"ObjectBlack",1,"CR",615,"object","Flowers-Insects IAT","incongruent","SCIAT first","male",36,15,FALSE
57250160,"ObjectBlack",1,"CR",602,"object","Flowers-Insects IAT","incongruent","SCIAT first","male",36,15,FALSE
57250160,"GunBlack",1,"Hit",775,"gun","Flowers-Insects IAT","incongruent","SCIAT first","male",36,15,FALSE
57250160,"GunBlack",1,"Hit",579,"gun","Flowers-Insects IAT","incongruent","SCIAT first","male",36,15,FALSE
57250160,"GunBlack",1,"Hit",650,"gun","Flowers-Insects IAT","incongruent","SCIAT first","male",36,15,FALSE
57250160,"ObjectBlack",1,"CR",617,"object","Flowers-Insects IAT","incongruent","SCIAT first","male",36,15,FALSE
57250160,"ObjectBlack",1,"CR",638,"object","Flowers-Insects IAT","incongruent","SCIAT first","male",36,15,FALSE
57250160,"GunBlack",1,"Hit",512,"gun","Flowers-Insects IAT","incongruent","SCIAT first","male",36,15,FALSE
57250160,"ObjectBlack",0,"FA",529,"object","Flowers-Insects IAT","incongruent","SCIAT first","male",36,15,FALSE
57250160,"ObjectBlack",1,"CR",696,"object","Flowers-Insects IAT","incongruent","SCIAT first","male",36,15,FALSE
57250160,"ObjectBlack",1,"CR",560,"object","Flowers-Insects IAT","incongruent","SCIAT first","male",36,15,FALSE
57250160,"GunBlack",1,"Hit",550,"gun","Flowers-Insects IAT","incongruent","SCIAT first","male",36,15,FALSE
57250160,"ObjectBlack",1,"CR",650,"object","Flowers-Insects IAT","incongruent","SCIAT first","male",36,15,FALSE
57250160,"GunBlack",1,"Hit",659,"gun","Flowers-Insects IAT","incongruent","SCIAT first","male",36,15,FALSE
57250160,"ObjectBlack",1,"CR",677,"object","Flowers-Insects IAT","incongruent","SCIAT first","male",36,15,FALSE
57250160,"ObjectBlack",1,"CR",548,"object","Flowers-Insects IAT","incongruent","SCIAT first","male",36,15,FALSE
57250160,"ObjectBlack",1,"CR",641,"object","Flowers-Insects IAT","incongruent","SCIAT first","male",36,15,FALSE
57250160,"GunBlack",1,"Hit",546,"gun","Flowers-Insects IAT","incongruent","SCIAT first","male",36,15,FALSE
57250160,"GunBlack",0,"Miss",753,"gun","Flowers-Insects IAT","incongruent","SCIAT first","male",36,15,FALSE
57250160,"GunBlack",1,"Hit",531,"gun","Flowers-Insects IAT","incongruent","SCIAT first","male",36,15,FALSE
57250160,"GunBlack",1,"Hit",702,"gun","Flowers-Insects IAT","incongruent","SCIAT first","male",36,15,FALSE
57250160,"ObjectBlack",1,"CR",567,"object","Flowers-Insects IAT","incongruent","SCIAT first","male",36,15,FALSE
57250160,"GunBlack",1,"Hit",550,"gun","Flowers-Insects IAT","incongruent","SCIAT first","male",36,15,FALSE
57250160,"GunBlack",1,"Hit",564,"gun","Flowers-Insects IAT","incongruent","SCIAT first","male",36,15,FALSE
57250160,"GunBlack",1,"Hit",530,"gun","Flowers-Insects IAT","incongruent","SCIAT first","male",36,15,FALSE
57250160,"GunBlack",1,"Hit",552,"gun","Flowers-Insects IAT","incongruent","SCIAT first","male",36,15,FALSE
57250160,"ObjectBlack",1,"CR",701,"object","Flowers-Insects IAT","incongruent","SCIAT first","male",36,15,FALSE
57250160,"ObjectBlack",1,"CR",621,"object","Flowers-Insects IAT","incongruent","SCIAT first","male",36,15,FALSE
57250160,"ObjectBlack",1,"CR",735,"object","Flowers-Insects IAT","incongruent","SCIAT first","male",36,15,FALSE
57250160,"GunBlack",1,"Hit",661,"gun","Flowers-Insects IAT","incongruent","SCIAT first","male",36,15,FALSE
57250160,"ObjectBlack",1,"CR",560,"object","Flowers-Insects IAT","incongruent","SCIAT first","male",36,15,FALSE
57250160,"GunBlack",1,"Hit",729,"gun","Flowers-Insects IAT","incongruent","SCIAT first","male",36,15,FALSE
57250160,"ObjectBlack",1,"CR",600,"object","Flowers-Insects IAT","incongruent","SCIAT first","male",36,15,FALSE
57250160,"GunBlack",1,"Hit",510,"gun","Flowers-Insects IAT","incongruent","SCIAT first","male",36,15,FALSE
57250160,"ObjectBlack",1,"CR",532,"object","Flowers-Insects IAT","incongruent","SCIAT first","male",36,15,FALSE
57250160,"GunBlack",0,"Miss",632,"gun","Flowers-Insects IAT","incongruent","SCIAT first","male",36,15,FALSE
57250160,"GunBlack",1,"Hit",495,"gun","Flowers-Insects IAT","incongruent","SCIAT first","male",36,15,FALSE
57250160,"ObjectBlack",1,"CR",571,"object","Flowers-Insects IAT","incongruent","SCIAT first","male",36,15,FALSE
57250160,"GunBlack",1,"Hit",508,"gun","Flowers-Insects IAT","incongruent","SCIAT first","male",36,15,FALSE
57250160,"ObjectBlack",1,"CR",571,"object","Flowers-Insects IAT","incongruent","SCIAT first","male",36,15,FALSE
57250160,"ObjectBlack",1,"CR",615,"object","Flowers-Insects IAT","incongruent","SCIAT first","male",36,15,FALSE
57250160,"ObjectBlack",1,"CR",626,"object","Flowers-Insects IAT","incongruent","SCIAT first","male",36,15,FALSE
57250160,"ObjectBlack",1,"CR",583,"object","Flowers-Insects IAT","incongruent","SCIAT first","male",36,15,FALSE
57250160,"GunBlack",1,"Hit",490,"gun","Flowers-Insects IAT","incongruent","SCIAT first","male",36,15,FALSE
57250160,"GunBlack",1,"Hit",485,"gun","Flowers-Insects IAT","incongruent","SCIAT first","male",36,15,FALSE
57250160,"ObjectBlack",1,"CR",555,"object","Flowers-Insects IAT","incongruent","SCIAT first","male",36,15,FALSE
57250160,"ObjectBlack",1,"CR",539,"object","Flowers-Insects IAT","incongruent","SCIAT first","male",36,15,FALSE
57250160,"GunBlack",1,"Hit",597,"gun","Flowers-Insects IAT","incongruent","SCIAT first","male",36,15,FALSE
57250160,"GunBlack",1,"Hit",520,"gun","Flowers-Insects IAT","incongruent","SCIAT first","male",36,15,FALSE
57250160,"GunBlack",1,"Hit",477,"gun","Flowers-Insects IAT","incongruent","SCIAT first","male",36,15,FALSE
57250160,"GunBlack",1,"Hit",547,"gun","Flowers-Insects IAT","incongruent","SCIAT first","male",36,15,FALSE
57250160,"ObjectBlack",1,"CR",526,"object","Flowers-Insects IAT","incongruent","SCIAT first","male",36,15,FALSE
57250160,"ObjectBlack",1,"CR",625,"object","Flowers-Insects IAT","incongruent","SCIAT first","male",36,15,FALSE
57250160,"GunBlack",1,"Hit",429,"gun","Flowers-Insects IAT","incongruent","SCIAT first","male",36,15,FALSE
57250160,"ObjectBlack",1,"CR",540,"object","Flowers-Insects IAT","incongruent","SCIAT first","male",36,15,FALSE
57250160,"ObjectBlack",1,"CR",498,"object","Flowers-Insects IAT","incongruent","SCIAT first","male",36,15,FALSE
57250160,"ObjectBlack",1,"CR",610,"object","Flowers-Insects IAT","incongruent","SCIAT first","male",36,15,FALSE
57250160,"ObjectBlack",1,"CR",490,"object","Flowers-Insects IAT","incongruent","SCIAT first","male",36,15,FALSE
57250160,"GunBlack",1,"Hit",494,"gun","Flowers-Insects IAT","incongruent","SCIAT first","male",36,15,FALSE
57250160,"ObjectBlack",1,"CR",543,"object","Flowers-Insects IAT","incongruent","SCIAT first","male",36,15,FALSE
255740741,"ObjectBlack",1,"CR",581,"object","Flowers-Insects IAT","congruent","ratings first","female",29,12,FALSE
255740741,"GunBlack",1,"Hit",441,"gun","Flowers-Insects IAT","congruent","ratings first","female",29,12,FALSE
255740741,"GunBlack",1,"Hit",484,"gun","Flowers-Insects IAT","congruent","ratings first","female",29,12,FALSE
255740741,"GunBlack",1,"Hit",569,"gun","Flowers-Insects IAT","congruent","ratings first","female",29,12,FALSE
255740741,"GunBlack",0,"Miss",575,"gun","Flowers-Insects IAT","congruent","ratings first","female",29,12,FALSE
255740741,"GunBlack",1,"Hit",621,"gun","Flowers-Insects IAT","congruent","ratings first","female",29,12,FALSE
255740741,"ObjectBlack",1,"CR",647,"object","Flowers-Insects IAT","congruent","ratings first","female",29,12,FALSE
255740741,"ObjectBlack",1,"CR",719,"object","Flowers-Insects IAT","congruent","ratings first","female",29,12,FALSE
255740741,"GunBlack",1,"Hit",615,"gun","Flowers-Insects IAT","congruent","ratings first","female",29,12,FALSE
255740741,"ObjectBlack",1,"CR",753,"object","Flowers-Insects IAT","congruent","ratings first","female",29,12,FALSE
255740741,"ObjectBlack",1,"CR",680,"object","Flowers-Insects IAT","congruent","ratings first","female",29,12,FALSE
255740741,"ObjectBlack",1,"CR",724,"object","Flowers-Insects IAT","congruent","ratings first","female",29,12,FALSE
255740741,"GunBlack",1,"Hit",773,"gun","Flowers-Insects IAT","congruent","ratings first","female",29,12,FALSE
255740741,"ObjectBlack",1,"CR",626,"object","Flowers-Insects IAT","congruent","ratings first","female",29,12,FALSE
255740741,"GunBlack",1,"Hit",493,"gun","Flowers-Insects IAT","congruent","ratings first","female",29,12,FALSE
255740741,"GunBlack",1,"Hit",613,"gun","Flowers-Insects IAT","congruent","ratings first","female",29,12,FALSE
255740741,"GunBlack",1,"Hit",527,"gun","Flowers-Insects IAT","congruent","ratings first","female",29,12,FALSE
255740741,"ObjectBlack",1,"CR",644,"object","Flowers-Insects IAT","congruent","ratings first","female",29,12,FALSE
255740741,"GunBlack",1,"Hit",704,"gun","Flowers-Insects IAT","congruent","ratings first","female",29,12,FALSE
255740741,"GunBlack",1,"Hit",528,"gun","Flowers-Insects IAT","congruent","ratings first","female",29,12,FALSE
255740741,"ObjectBlack",1,"CR",676,"object","Flowers-Insects IAT","congruent","ratings first","female",29,12,FALSE
255740741,"ObjectBlack",1,"CR",814,"object","Flowers-Insects IAT","congruent","ratings first","female",29,12,FALSE
255740741,"GunBlack",1,"Hit",818,"gun","Flowers-Insects IAT","congruent","ratings first","female",29,12,FALSE
255740741,"GunBlack",1,"Hit",746,"gun","Flowers-Insects IAT","congruent","ratings first","female",29,12,FALSE
255740741,"GunBlack",1,"Hit",483,"gun","Flowers-Insects IAT","congruent","ratings first","female",29,12,FALSE
255740741,"ObjectBlack",1,"CR",708,"object","Flowers-Insects IAT","congruent","ratings first","female",29,12,FALSE
255740741,"ObjectBlack",1,"CR",671,"object","Flowers-Insects IAT","congruent","ratings first","female",29,12,FALSE
255740741,"GunBlack",1,"Hit",666,"gun","Flowers-Insects IAT","congruent","ratings first","female",29,12,FALSE
255740741,"ObjectBlack",1,"CR",662,"object","Flowers-Insects IAT","congruent","ratings first","female",29,12,FALSE
255740741,"ObjectBlack",1,"CR",696,"object","Flowers-Insects IAT","congruent","ratings first","female",29,12,FALSE
255740741,"ObjectBlack",1,"CR",678,"object","Flowers-Insects IAT","congruent","ratings first","female",29,12,FALSE
255740741,"GunBlack",1,"Hit",594,"gun","Flowers-Insects IAT","congruent","ratings first","female",29,12,FALSE
255740741,"ObjectBlack",1,"CR",575,"object","Flowers-Insects IAT","congruent","ratings first","female",29,12,FALSE
255740741,"GunBlack",1,"Hit",561,"gun","Flowers-Insects IAT","congruent","ratings first","female",29,12,FALSE
255740741,"GunBlack",0,"Miss",699,"gun","Flowers-Insects IAT","congruent","ratings first","female",29,12,FALSE
255740741,"ObjectBlack",1,"CR",820,"object","Flowers-Insects IAT","congruent","ratings first","female",29,12,FALSE
255740741,"ObjectBlack",1,"CR",632,"object","Flowers-Insects IAT","congruent","ratings first","female",29,12,FALSE
255740741,"GunBlack",1,"Hit",499,"gun","Flowers-Insects IAT","congruent","ratings first","female",29,12,FALSE
255740741,"GunBlack",1,"Hit",474,"gun","Flowers-Insects IAT","congruent","ratings first","female",29,12,FALSE
255740741,"ObjectBlack",1,"CR",582,"object","Flowers-Insects IAT","congruent","ratings first","female",29,12,FALSE
255740741,"ObjectBlack",1,"CR",717,"object","Flowers-Insects IAT","congruent","ratings first","female",29,12,FALSE
255740741,"ObjectBlack",1,"CR",633,"object","Flowers-Insects IAT","congruent","ratings first","female",29,12,FALSE
255740741,"GunBlack",1,"Hit",690,"gun","Flowers-Insects IAT","congruent","ratings first","female",29,12,FALSE
255740741,"ObjectBlack",1,"CR",675,"object","Flowers-Insects IAT","congruent","ratings first","female",29,12,FALSE
255740741,"GunBlack",1,"Hit",628,"gun","Flowers-Insects IAT","congruent","ratings first","female",29,12,FALSE
255740741,"GunBlack",1,"Hit",622,"gun","Flowers-Insects IAT","congruent","ratings first","female",29,12,FALSE
255740741,"GunBlack",1,"Hit",787,"gun","Flowers-Insects IAT","congruent","ratings first","female",29,12,FALSE
255740741,"GunBlack",1,"Hit",588,"gun","Flowers-Insects IAT","congruent","ratings first","female",29,12,FALSE
255740741,"ObjectBlack",1,"CR",656,"object","Flowers-Insects IAT","congruent","ratings first","female",29,12,FALSE
255740741,"ObjectBlack",1,"CR",647,"object","Flowers-Insects IAT","congruent","ratings first","female",29,12,FALSE
255740741,"GunBlack",1,"Hit",828,"gun","Flowers-Insects IAT","congruent","ratings first","female",29,12,FALSE
255740741,"GunBlack",1,"Hit",708,"gun","Flowers-Insects IAT","congruent","ratings first","female",29,12,FALSE
255740741,"GunBlack",1,"Hit",660,"gun","Flowers-Insects IAT","congruent","ratings first","female",29,12,FALSE
255740741,"GunBlack",1,"Hit",568,"gun","Flowers-Insects IAT","congruent","ratings first","female",29,12,FALSE
255740741,"ObjectBlack",1,"CR",783,"object","Flowers-Insects IAT","congruent","ratings first","female",29,12,FALSE
255740741,"GunBlack",1,"Hit",519,"gun","Flowers-Insects IAT","congruent","ratings first","female",29,12,FALSE
255740741,"GunBlack",1,"Hit",468,"gun","Flowers-Insects IAT","congruent","ratings first","female",29,12,FALSE
255740741,"GunBlack",1,"Hit",600,"gun","Flowers-Insects IAT","congruent","ratings first","female",29,12,FALSE
255740741,"ObjectBlack",1,"CR",811,"object","Flowers-Insects IAT","congruent","ratings first","female",29,12,FALSE
255740741,"GunBlack",1,"Hit",645,"gun","Flowers-Insects IAT","congruent","ratings first","female",29,12,FALSE
255740741,"ObjectBlack",1,"CR",696,"object","Flowers-Insects IAT","congruent","ratings first","female",29,12,FALSE
255740741,"ObjectBlack",1,"CR",679,"object","Flowers-Insects IAT","congruent","ratings first","female",29,12,FALSE
255740741,"GunBlack",1,"Hit",653,"gun","Flowers-Insects IAT","congruent","ratings first","female",29,12,FALSE
255740741,"ObjectBlack",1,"CR",648,"object","Flowers-Insects IAT","congruent","ratings first","female",29,12,FALSE
255740741,"ObjectBlack",1,"CR",743,"object","Flowers-Insects IAT","congruent","ratings first","female",29,12,FALSE
255740741,"GunBlack",1,"Hit",801,"gun","Flowers-Insects IAT","congruent","ratings first","female",29,12,FALSE
255740741,"ObjectBlack",1,"CR",715,"object","Flowers-Insects IAT","congruent","ratings first","female",29,12,FALSE
255740741,"ObjectBlack",1,"CR",641,"object","Flowers-Insects IAT","congruent","ratings first","female",29,12,FALSE
255740741,"GunBlack",1,"Hit",739,"gun","Flowers-Insects IAT","congruent","ratings first","female",29,12,FALSE
255740741,"ObjectBlack",1,"CR",645,"object","Flowers-Insects IAT","congruent","ratings first","female",29,12,FALSE
255740741,"ObjectBlack",1,"CR",843,"object","Flowers-Insects IAT","congruent","ratings first","female",29,12,FALSE
255740741,"GunBlack",1,"Hit",488,"gun","Flowers-Insects IAT","congruent","ratings first","female",29,12,FALSE
255740741,"ObjectBlack",1,"CR",489,"object","Flowers-Insects IAT","congruent","ratings first","female",29,12,FALSE
255740741,"GunBlack",1,"Hit",602,"gun","Flowers-Insects IAT","congruent","ratings first","female",29,12,FALSE
255740741,"GunBlack",1,"Hit",586,"gun","Flowers-Insects IAT","congruent","ratings first","female",29,12,FALSE
255740741,"ObjectBlack",1,"CR",694,"object","Flowers-Insects IAT","congruent","ratings first","female",29,12,FALSE
255740741,"ObjectBlack",1,"CR",721,"object","Flowers-Insects IAT","congruent","ratings first","female",29,12,FALSE
563591600,"GunBlack",1,"Hit",807,"gun","Flowers-Insects IAT","incongruent","SCIAT first","female",33,16,FALSE
563591600,"ObjectBlack",1,"CR",567,"object","Flowers-Insects IAT","incongruent","SCIAT first","female",33,16,FALSE
563591600,"GunBlack",1,"Hit",533,"gun","Flowers-Insects IAT","incongruent","SCIAT first","female",33,16,FALSE
563591600,"GunBlack",1,"Hit",483,"gun","Flowers-Insects IAT","incongruent","SCIAT first","female",33,16,FALSE
563591600,"GunBlack",1,"Hit",543,"gun","Flowers-Insects IAT","incongruent","SCIAT first","female",33,16,FALSE
563591600,"ObjectBlack",1,"CR",643,"object","Flowers-Insects IAT","incongruent","SCIAT first","female",33,16,FALSE
563591600,"ObjectBlack",1,"CR",536,"object","Flowers-Insects IAT","incongruent","SCIAT first","female",33,16,FALSE
563591600,"GunBlack",1,"Hit",514,"gun","Flowers-Insects IAT","incongruent","SCIAT first","female",33,16,FALSE
563591600,"GunBlack",1,"Hit",520,"gun","Flowers-Insects IAT","incongruent","SCIAT first","female",33,16,FALSE
563591600,"ObjectBlack",1,"CR",655,"object","Flowers-Insects IAT","incongruent","SCIAT first","female",33,16,FALSE
563591600,"GunBlack",1,"Hit",572,"gun","Flowers-Insects IAT","incongruent","SCIAT first","female",33,16,FALSE
563591600,"GunBlack",1,"Hit",598,"gun","Flowers-Insects IAT","incongruent","SCIAT first","female",33,16,FALSE
563591600,"ObjectBlack",1,"CR",807,"object","Flowers-Insects IAT","incongruent","SCIAT first","female",33,16,FALSE
563591600,"ObjectBlack",1,"CR",627,"object","Flowers-Insects IAT","incongruent","SCIAT first","female",33,16,FALSE
563591600,"GunBlack",1,"Hit",561,"gun","Flowers-Insects IAT","incongruent","SCIAT first","female",33,16,FALSE
563591600,"ObjectBlack",1,"CR",609,"object","Flowers-Insects IAT","incongruent","SCIAT first","female",33,16,FALSE
563591600,"ObjectBlack",1,"CR",559,"object","Flowers-Insects IAT","incongruent","SCIAT first","female",33,16,FALSE
563591600,"GunBlack",1,"Hit",505,"gun","Flowers-Insects IAT","incongruent","SCIAT first","female",33,16,FALSE
563591600,"GunBlack",1,"Hit",641,"gun","Flowers-Insects IAT","incongruent","SCIAT first","female",33,16,FALSE
563591600,"ObjectBlack",1,"CR",701,"object","Flowers-Insects IAT","incongruent","SCIAT first","female",33,16,FALSE
563591600,"GunBlack",1,"Hit",676,"gun","Flowers-Insects IAT","incongruent","SCIAT first","female",33,16,FALSE
563591600,"ObjectBlack",1,"CR",646,"object","Flowers-Insects IAT","incongruent","SCIAT first","female",33,16,FALSE
563591600,"GunBlack",1,"Hit",643,"gun","Flowers-Insects IAT","incongruent","SCIAT first","female",33,16,FALSE
563591600,"ObjectBlack",1,"CR",694,"object","Flowers-Insects IAT","incongruent","SCIAT first","female",33,16,FALSE
563591600,"GunBlack",1,"Hit",509,"gun","Flowers-Insects IAT","incongruent","SCIAT first","female",33,16,FALSE
563591600,"GunBlack",1,"Hit",655,"gun","Flowers-Insects IAT","incongruent","SCIAT first","female",33,16,FALSE
563591600,"ObjectBlack",1,"CR",594,"object","Flowers-Insects IAT","incongruent","SCIAT first","female",33,16,FALSE
563591600,"GunBlack",1,"Hit",546,"gun","Flowers-Insects IAT","incongruent","SCIAT first","female",33,16,FALSE
563591600,"ObjectBlack",1,"CR",767,"object","Flowers-Insects IAT","incongruent","SCIAT first","female",33,16,FALSE
563591600,"ObjectBlack",1,"CR",591,"object","Flowers-Insects IAT","incongruent","SCIAT first","female",33,16,FALSE
563591600,"GunBlack",1,"Hit",711,"gun","Flowers-Insects IAT","incongruent","SCIAT first","female",33,16,FALSE
563591600,"ObjectBlack",1,"CR",832,"object","Flowers-Insects IAT","incongruent","SCIAT first","female",33,16,FALSE
563591600,"ObjectBlack",1,"CR",636,"object","Flowers-Insects IAT","incongruent","SCIAT first","female",33,16,FALSE
563591600,"ObjectBlack",1,"CR",562,"object","Flowers-Insects IAT","incongruent","SCIAT first","female",33,16,FALSE
563591600,"ObjectBlack",1,"CR",647,"object","Flowers-Insects IAT","incongruent","SCIAT first","female",33,16,FALSE
563591600,"ObjectBlack",1,"CR",481,"object","Flowers-Insects IAT","incongruent","SCIAT first","female",33,16,FALSE
563591600,"GunBlack",1,"Hit",589,"gun","Flowers-Insects IAT","incongruent","SCIAT first","female",33,16,FALSE
563591600,"GunBlack",1,"Hit",708,"gun","Flowers-Insects IAT","incongruent","SCIAT first","female",33,16,FALSE
563591600,"ObjectBlack",1,"CR",585,"object","Flowers-Insects IAT","incongruent","SCIAT first","female",33,16,FALSE
563591600,"GunBlack",1,"Hit",580,"gun","Flowers-Insects IAT","incongruent","SCIAT first","female",33,16,FALSE
563591600,"GunBlack",1,"Hit",555,"gun","Flowers-Insects IAT","incongruent","SCIAT first","female",33,16,FALSE
563591600,"ObjectBlack",1,"CR",687,"object","Flowers-Insects IAT","incongruent","SCIAT first","female",33,16,FALSE
563591600,"GunBlack",1,"Hit",539,"gun","Flowers-Insects IAT","incongruent","SCIAT first","female",33,16,FALSE
563591600,"ObjectBlack",1,"CR",597,"object","Flowers-Insects IAT","incongruent","SCIAT first","female",33,16,FALSE
563591600,"GunBlack",1,"Hit",632,"gun","Flowers-Insects IAT","incongruent","SCIAT first","female",33,16,FALSE
563591600,"GunBlack",1,"Hit",603,"gun","Flowers-Insects IAT","incongruent","SCIAT first","female",33,16,FALSE
563591600,"ObjectBlack",1,"CR",725,"object","Flowers-Insects IAT","incongruent","SCIAT first","female",33,16,FALSE
563591600,"ObjectBlack",1,"CR",513,"object","Flowers-Insects IAT","incongruent","SCIAT first","female",33,16,FALSE
563591600,"ObjectBlack",0,"FA",604,"object","Flowers-Insects IAT","incongruent","SCIAT first","female",33,16,FALSE
563591600,"ObjectBlack",1,"CR",682,"object","Flowers-Insects IAT","incongruent","SCIAT first","female",33,16,FALSE
563591600,"ObjectBlack",1,"CR",607,"object","Flowers-Insects IAT","incongruent","SCIAT first","female",33,16,FALSE
563591600,"GunBlack",1,"Hit",688,"gun","Flowers-Insects IAT","incongruent","SCIAT first","female",33,16,FALSE
563591600,"GunBlack",1,"Hit",704,"gun","Flowers-Insects IAT","incongruent","SCIAT first","female",33,16,FALSE
563591600,"ObjectBlack",1,"CR",631,"object","Flowers-Insects IAT","incongruent","SCIAT first","female",33,16,FALSE
563591600,"GunBlack",1,"Hit",608,"gun","Flowers-Insects IAT","incongruent","SCIAT first","female",33,16,FALSE
563591600,"GunBlack",1,"Hit",627,"gun","Flowers-Insects IAT","incongruent","SCIAT first","female",33,16,FALSE
563591600,"GunBlack",1,"Hit",672,"gun","Flowers-Insects IAT","incongruent","SCIAT first","female",33,16,FALSE
563591600,"GunBlack",1,"Hit",480,"gun","Flowers-Insects IAT","incongruent","SCIAT first","female",33,16,FALSE
563591600,"ObjectBlack",1,"CR",783,"object","Flowers-Insects IAT","incongruent","SCIAT first","female",33,16,FALSE
563591600,"GunBlack",1,"Hit",835,"gun","Flowers-Insects IAT","incongruent","SCIAT first","female",33,16,FALSE
563591600,"GunBlack",1,"Hit",539,"gun","Flowers-Insects IAT","incongruent","SCIAT first","female",33,16,FALSE
563591600,"GunBlack",1,"Hit",488,"gun","Flowers-Insects IAT","incongruent","SCIAT first","female",33,16,FALSE
563591600,"GunBlack",1,"Hit",482,"gun","Flowers-Insects IAT","incongruent","SCIAT first","female",33,16,FALSE
563591600,"ObjectBlack",0,"FA",405,"object","Flowers-Insects IAT","incongruent","SCIAT first","female",33,16,FALSE
563591600,"GunBlack",1,"Hit",571,"gun","Flowers-Insects IAT","incongruent","SCIAT first","female",33,16,FALSE
563591600,"ObjectBlack",1,"CR",762,"object","Flowers-Insects IAT","incongruent","SCIAT first","female",33,16,FALSE
563591600,"GunBlack",1,"Hit",649,"gun","Flowers-Insects IAT","incongruent","SCIAT first","female",33,16,FALSE
563591600,"ObjectBlack",1,"CR",692,"object","Flowers-Insects IAT","incongruent","SCIAT first","female",33,16,FALSE
563591600,"ObjectBlack",1,"CR",748,"object","Flowers-Insects IAT","incongruent","SCIAT first","female",33,16,FALSE
563591600,"GunBlack",1,"Hit",591,"gun","Flowers-Insects IAT","incongruent","SCIAT first","female",33,16,FALSE
563591600,"ObjectBlack",1,"CR",784,"object","Flowers-Insects IAT","incongruent","SCIAT first","female",33,16,FALSE
563591600,"ObjectBlack",1,"CR",819,"object","Flowers-Insects IAT","incongruent","SCIAT first","female",33,16,FALSE
563591600,"ObjectBlack",1,"CR",740,"object","Flowers-Insects IAT","incongruent","SCIAT first","female",33,16,FALSE
563591600,"ObjectBlack",1,"CR",674,"object","Flowers-Insects IAT","incongruent","SCIAT first","female",33,16,FALSE
563591600,"ObjectBlack",1,"CR",640,"object","Flowers-Insects IAT","incongruent","SCIAT first","female",33,16,FALSE
563591600,"GunBlack",1,"Hit",543,"gun","Flowers-Insects IAT","incongruent","SCIAT first","female",33,16,FALSE
563591600,"GunBlack",1,"Hit",634,"gun","Flowers-Insects IAT","incongruent","SCIAT first","female",33,16,FALSE
563591600,"ObjectBlack",1,"CR",680,"object","Flowers-Insects IAT","incongruent","SCIAT first","female",33,16,FALSE
770578037,"GunBlack",1,"Hit",412,"gun","Flowers-Insects IAT","congruent","ratings first","female",31,13,FALSE
770578037,"GunBlack",1,"Hit",551,"gun","Flowers-Insects IAT","congruent","ratings first","female",31,13,FALSE
770578037,"ObjectBlack",0,"FA",625,"object","Flowers-Insects IAT","congruent","ratings first","female",31,13,FALSE
770578037,"GunBlack",1,"Hit",659,"gun","Flowers-Insects IAT","congruent","ratings first","female",31,13,FALSE
770578037,"GunBlack",1,"Hit",490,"gun","Flowers-Insects IAT","congruent","ratings first","female",31,13,FALSE
770578037,"GunBlack",1,"Hit",496,"gun","Flowers-Insects IAT","congruent","ratings first","female",31,13,FALSE
770578037,"ObjectBlack",0,"FA",538,"object","Flowers-Insects IAT","congruent","ratings first","female",31,13,FALSE
770578037,"GunBlack",1,"Hit",672,"gun","Flowers-Insects IAT","congruent","ratings first","female",31,13,FALSE
770578037,"ObjectBlack",1,"CR",761,"object","Flowers-Insects IAT","congruent","ratings first","female",31,13,FALSE
770578037,"ObjectBlack",1,"CR",576,"object","Flowers-Insects IAT","congruent","ratings first","female",31,13,FALSE
770578037,"GunBlack",1,"Hit",808,"gun","Flowers-Insects IAT","congruent","ratings first","female",31,13,FALSE
770578037,"ObjectBlack",1,"CR",661,"object","Flowers-Insects IAT","congruent","ratings first","female",31,13,FALSE
770578037,"GunBlack",0,"Miss",845,"gun","Flowers-Insects IAT","congruent","ratings first","female",31,13,FALSE
770578037,"GunBlack",1,"Hit",575,"gun","Flowers-Insects IAT","congruent","ratings first","female",31,13,FALSE
770578037,"GunBlack",1,"Hit",557,"gun","Flowers-Insects IAT","congruent","ratings first","female",31,13,FALSE
770578037,"ObjectBlack",1,"CR",737,"object","Flowers-Insects IAT","congruent","ratings first","female",31,13,FALSE
770578037,"GunBlack",0,"Miss",574,"gun","Flowers-Insects IAT","congruent","ratings first","female",31,13,FALSE
770578037,"ObjectBlack",1,"CR",762,"object","Flowers-Insects IAT","congruent","ratings first","female",31,13,FALSE
770578037,"ObjectBlack",0,"FA",636,"object","Flowers-Insects IAT","congruent","ratings first","female",31,13,FALSE
770578037,"GunBlack",1,"Hit",667,"gun","Flowers-Insects IAT","congruent","ratings first","female",31,13,FALSE
770578037,"GunBlack",1,"Hit",618,"gun","Flowers-Insects IAT","congruent","ratings first","female",31,13,FALSE
770578037,"GunBlack",1,"Hit",591,"gun","Flowers-Insects IAT","congruent","ratings first","female",31,13,FALSE
770578037,"ObjectBlack",0,"FA",506,"object","Flowers-Insects IAT","congruent","ratings first","female",31,13,FALSE
770578037,"ObjectBlack",1,"CR",595,"object","Flowers-Insects IAT","congruent","ratings first","female",31,13,FALSE
770578037,"GunBlack",1,"Hit",549,"gun","Flowers-Insects IAT","congruent","ratings first","female",31,13,FALSE
770578037,"GunBlack",1,"Hit",717,"gun","Flowers-Insects IAT","congruent","ratings first","female",31,13,FALSE
770578037,"ObjectBlack",1,"CR",837,"object","Flowers-Insects IAT","congruent","ratings first","female",31,13,FALSE
770578037,"GunBlack",1,"Hit",462,"gun","Flowers-Insects IAT","congruent","ratings first","female",31,13,FALSE
770578037,"ObjectBlack",1,"CR",752,"object","Flowers-Insects IAT","congruent","ratings first","female",31,13,FALSE
770578037,"GunBlack",1,"Hit",609,"gun","Flowers-Insects IAT","congruent","ratings first","female",31,13,FALSE
770578037,"GunBlack",1,"Hit",556,"gun","Flowers-Insects IAT","congruent","ratings first","female",31,13,FALSE
770578037,"ObjectBlack",1,"CR",655,"object","Flowers-Insects IAT","congruent","ratings first","female",31,13,FALSE
770578037,"GunBlack",1,"Hit",527,"gun","Flowers-Insects IAT","congruent","ratings first","female",31,13,FALSE
770578037,"GunBlack",1,"Hit",572,"gun","Flowers-Insects IAT","congruent","ratings first","female",31,13,FALSE
770578037,"ObjectBlack",1,"CR",730,"object","Flowers-Insects IAT","congruent","ratings first","female",31,13,FALSE
770578037,"ObjectBlack",1,"CR",634,"object","Flowers-Insects IAT","congruent","ratings first","female",31,13,FALSE
770578037,"ObjectBlack",1,"CR",647,"object","Flowers-Insects IAT","congruent","ratings first","female",31,13,FALSE
770578037,"GunBlack",1,"Hit",714,"gun","Flowers-Insects IAT","congruent","ratings first","female",31,13,FALSE
770578037,"ObjectBlack",1,"CR",698,"object","Flowers-Insects IAT","congruent","ratings first","female",31,13,FALSE
770578037,"ObjectBlack",1,"CR",644,"object","Flowers-Insects IAT","congruent","ratings first","female",31,13,FALSE
770578037,"ObjectBlack",1,"CR",659,"object","Flowers-Insects IAT","congruent","ratings first","female",31,13,FALSE
770578037,"ObjectBlack",1,"CR",718,"object","Flowers-Insects IAT","congruent","ratings first","female",31,13,FALSE
770578037,"ObjectBlack",1,"CR",654,"object","Flowers-Insects IAT","congruent","ratings first","female",31,13,FALSE
770578037,"GunBlack",1,"Hit",685,"gun","Flowers-Insects IAT","congruent","ratings first","female",31,13,FALSE
770578037,"GunBlack",1,"Hit",676,"gun","Flowers-Insects IAT","congruent","ratings first","female",31,13,FALSE
770578037,"ObjectBlack",1,"CR",706,"object","Flowers-Insects IAT","congruent","ratings first","female",31,13,FALSE
770578037,"ObjectBlack",1,"CR",642,"object","Flowers-Insects IAT","congruent","ratings first","female",31,13,FALSE
770578037,"GunBlack",0,"Miss",524,"gun","Flowers-Insects IAT","congruent","ratings first","female",31,13,FALSE
770578037,"ObjectBlack",1,"CR",778,"object","Flowers-Insects IAT","congruent","ratings first","female",31,13,FALSE
770578037,"GunBlack",0,"Miss",633,"gun","Flowers-Insects IAT","congruent","ratings first","female",31,13,FALSE
770578037,"GunBlack",1,"Hit",675,"gun","Flowers-Insects IAT","congruent","ratings first","female",31,13,FALSE
770578037,"ObjectBlack",1,"CR",613,"object","Flowers-Insects IAT","congruent","ratings first","female",31,13,FALSE
770578037,"ObjectBlack",1,"CR",656,"object","Flowers-Insects IAT","congruent","ratings first","female",31,13,FALSE
770578037,"GunBlack",1,"Hit",519,"gun","Flowers-Insects IAT","congruent","ratings first","female",31,13,FALSE
770578037,"GunBlack",1,"Hit",580,"gun","Flowers-Insects IAT","congruent","ratings first","female",31,13,FALSE
770578037,"GunBlack",1,"Hit",570,"gun","Flowers-Insects IAT","congruent","ratings first","female",31,13,FALSE
770578037,"GunBlack",1,"Hit",790,"gun","Flowers-Insects IAT","congruent","ratings first","female",31,13,FALSE
770578037,"GunBlack",0,"Miss",801,"gun","Flowers-Insects IAT","congruent","ratings first","female",31,13,FALSE
770578037,"ObjectBlack",0,"FA",580,"object","Flowers-Insects IAT","congruent","ratings first","female",31,13,FALSE
770578037,"ObjectBlack",1,"CR",773,"object","Flowers-Insects IAT","congruent","ratings first","female",31,13,FALSE
770578037,"ObjectBlack",1,"CR",753,"object","Flowers-Insects IAT","congruent","ratings first","female",31,13,FALSE
770578037,"ObjectBlack",1,"CR",775,"object","Flowers-Insects IAT","congruent","ratings first","female",31,13,FALSE
770578037,"ObjectBlack",1,"CR",748,"object","Flowers-Insects IAT","congruent","ratings first","female",31,13,FALSE
770578037,"ObjectBlack",1,"CR",668,"object","Flowers-Insects IAT","congruent","ratings first","female",31,13,FALSE
770578037,"ObjectBlack",1,"CR",647,"object","Flowers-Insects IAT","congruent","ratings first","female",31,13,FALSE
770578037,"ObjectBlack",1,"CR",612,"object","Flowers-Insects IAT","congruent","ratings first","female",31,13,FALSE
770578037,"ObjectBlack",1,"CR",623,"object","Flowers-Insects IAT","congruent","ratings first","female",31,13,FALSE
770578037,"GunBlack",0,"Miss",691,"gun","Flowers-Insects IAT","congruent","ratings first","female",31,13,FALSE
770578037,"GunBlack",1,"Hit",708,"gun","Flowers-Insects IAT","congruent","ratings first","female",31,13,FALSE
770578037,"GunBlack",0,"Miss",812,"gun","Flowers-Insects IAT","congruent","ratings first","female",31,13,FALSE
770578037,"GunBlack",1,"Hit",810,"gun","Flowers-Insects IAT","congruent","ratings first","female",31,13,FALSE
770578037,"ObjectBlack",1,"CR",764,"object","Flowers-Insects IAT","congruent","ratings first","female",31,13,FALSE
770578037,"GunBlack",1,"Hit",501,"gun","Flowers-Insects IAT","congruent","ratings first","female",31,13,FALSE
770578037,"ObjectBlack",1,"CR",738,"object","Flowers-Insects IAT","congruent","ratings first","female",31,13,FALSE
770578037,"GunBlack",1,"Hit",683,"gun","Flowers-Insects IAT","congruent","ratings first","female",31,13,FALSE
837260989,"ObjectBlack",0,"FA",387,"object","Flowers-Insects IAT","congruent","ratings first","female",31,22,FALSE
837260989,"GunBlack",1,"Hit",546,"gun","Flowers-Insects IAT","congruent","ratings first","female",31,22,FALSE
837260989,"ObjectBlack",1,"CR",156,"object","Flowers-Insects IAT","congruent","ratings first","female",31,22,FALSE
837260989,"GunBlack",1,"Hit",630,"gun","Flowers-Insects IAT","congruent","ratings first","female",31,22,FALSE
837260989,"ObjectBlack",1,"CR",725,"object","Flowers-Insects IAT","congruent","ratings first","female",31,22,FALSE
837260989,"GunBlack",1,"Hit",502,"gun","Flowers-Insects IAT","congruent","ratings first","female",31,22,FALSE
837260989,"ObjectBlack",1,"CR",485,"object","Flowers-Insects IAT","congruent","ratings first","female",31,22,FALSE
837260989,"ObjectBlack",1,"CR",536,"object","Flowers-Insects IAT","congruent","ratings first","female",31,22,FALSE
837260989,"GunBlack",1,"Hit",599,"gun","Flowers-Insects IAT","congruent","ratings first","female",31,22,FALSE
837260989,"GunBlack",1,"Hit",597,"gun","Flowers-Insects IAT","congruent","ratings first","female",31,22,FALSE
837260989,"GunBlack",0,"Miss",829,"gun","Flowers-Insects IAT","congruent","ratings first","female",31,22,FALSE
837260989,"ObjectBlack",0,"FA",552,"object","Flowers-Insects IAT","congruent","ratings first","female",31,22,FALSE
837260989,"ObjectBlack",0,"FA",629,"object","Flowers-Insects IAT","congruent","ratings first","female",31,22,FALSE
837260989,"GunBlack",1,"Hit",485,"gun","Flowers-Insects IAT","congruent","ratings first","female",31,22,FALSE
837260989,"ObjectBlack",1,"CR",545,"object","Flowers-Insects IAT","congruent","ratings first","female",31,22,FALSE
837260989,"ObjectBlack",1,"CR",500,"object","Flowers-Insects IAT","congruent","ratings first","female",31,22,FALSE
837260989,"GunBlack",1,"Hit",656,"gun","Flowers-Insects IAT","congruent","ratings first","female",31,22,FALSE
837260989,"ObjectBlack",1,"CR",614,"object","Flowers-Insects IAT","congruent","ratings first","female",31,22,FALSE
837260989,"ObjectBlack",0,"FA",513,"object","Flowers-Insects IAT","congruent","ratings first","female",31,22,FALSE
837260989,"ObjectBlack",1,"CR",148,"object","Flowers-Insects IAT","congruent","ratings first","female",31,22,FALSE
837260989,"ObjectBlack",1,"CR",611,"object","Flowers-Insects IAT","congruent","ratings first","female",31,22,FALSE
837260989,"ObjectBlack",1,"CR",509,"object","Flowers-Insects IAT","congruent","ratings first","female",31,22,FALSE
837260989,"GunBlack",0,"Miss",520,"gun","Flowers-Insects IAT","congruent","ratings first","female",31,22,FALSE
837260989,"GunBlack",1,"Hit",452,"gun","Flowers-Insects IAT","congruent","ratings first","female",31,22,FALSE
837260989,"GunBlack",0,"Miss",213,"gun","Flowers-Insects IAT","congruent","ratings first","female",31,22,FALSE
837260989,"ObjectBlack",1,"CR",619,"object","Flowers-Insects IAT","congruent","ratings first","female",31,22,FALSE
837260989,"ObjectBlack",0,"FA",665,"object","Flowers-Insects IAT","congruent","ratings first","female",31,22,FALSE
837260989,"GunBlack",1,"Hit",530,"gun","Flowers-Insects IAT","congruent","ratings first","female",31,22,FALSE
837260989,"ObjectBlack",1,"CR",679,"object","Flowers-Insects IAT","congruent","ratings first","female",31,22,FALSE
837260989,"ObjectBlack",1,"CR",742,"object","Flowers-Insects IAT","congruent","ratings first","female",31,22,FALSE
837260989,"GunBlack",0,"Miss",713,"gun","Flowers-Insects IAT","congruent","ratings first","female",31,22,FALSE
837260989,"ObjectBlack",0,"FA",472,"object","Flowers-Insects IAT","congruent","ratings first","female",31,22,FALSE
837260989,"GunBlack",0,"Miss",719,"gun","Flowers-Insects IAT","congruent","ratings first","female",31,22,FALSE
837260989,"ObjectBlack",1,"CR",173,"object","Flowers-Insects IAT","congruent","ratings first","female",31,22,FALSE
837260989,"ObjectBlack",1,"CR",598,"object","Flowers-Insects IAT","congruent","ratings first","female",31,22,FALSE
837260989,"ObjectBlack",1,"CR",519,"object","Flowers-Insects IAT","congruent","ratings first","female",31,22,FALSE
837260989,"GunBlack",0,"Miss",814,"gun","Flowers-Insects IAT","congruent","ratings first","female",31,22,FALSE
837260989,"GunBlack",1,"Hit",546,"gun","Flowers-Insects IAT","congruent","ratings first","female",31,22,FALSE
837260989,"GunBlack",1,"Hit",772,"gun","Flowers-Insects IAT","congruent","ratings first","female",31,22,FALSE
837260989,"GunBlack",1,"Hit",486,"gun","Flowers-Insects IAT","congruent","ratings first","female",31,22,FALSE
837260989,"GunBlack",1,"Hit",504,"gun","Flowers-Insects IAT","congruent","ratings first","female",31,22,FALSE
837260989,"GunBlack",1,"Hit",444,"gun","Flowers-Insects IAT","congruent","ratings first","female",31,22,FALSE
837260989,"ObjectBlack",1,"CR",475,"object","Flowers-Insects IAT","congruent","ratings first","female",31,22,FALSE
837260989,"GunBlack",1,"Hit",491,"gun","Flowers-Insects IAT","congruent","ratings first","female",31,22,FALSE
837260989,"ObjectBlack",0,"FA",647,"object","Flowers-Insects IAT","congruent","ratings first","female",31,22,FALSE
837260989,"ObjectBlack",1,"CR",736,"object","Flowers-Insects IAT","congruent","ratings first","female",31,22,FALSE
837260989,"GunBlack",1,"Hit",628,"gun","Flowers-Insects IAT","congruent","ratings first","female",31,22,FALSE
837260989,"ObjectBlack",1,"CR",641,"object","Flowers-Insects IAT","congruent","ratings first","female",31,22,FALSE
837260989,"ObjectBlack",1,"CR",550,"object","Flowers-Insects IAT","congruent","ratings first","female",31,22,FALSE
837260989,"GunBlack",1,"Hit",388,"gun","Flowers-Insects IAT","congruent","ratings first","female",31,22,FALSE
837260989,"ObjectBlack",0,"FA",444,"object","Flowers-Insects IAT","congruent","ratings first","female",31,22,FALSE
837260989,"GunBlack",1,"Hit",501,"gun","Flowers-Insects IAT","congruent","ratings first","female",31,22,FALSE
837260989,"ObjectBlack",1,"CR",531,"object","Flowers-Insects IAT","congruent","ratings first","female",31,22,FALSE
837260989,"GunBlack",1,"Hit",624,"gun","Flowers-Insects IAT","congruent","ratings first","female",31,22,FALSE
837260989,"ObjectBlack",1,"CR",635,"object","Flowers-Insects IAT","congruent","ratings first","female",31,22,FALSE
837260989,"ObjectBlack",1,"CR",712,"object","Flowers-Insects IAT","congruent","ratings first","female",31,22,FALSE
837260989,"ObjectBlack",1,"CR",733,"object","Flowers-Insects IAT","congruent","ratings first","female",31,22,FALSE
837260989,"GunBlack",1,"Hit",689,"gun","Flowers-Insects IAT","congruent","ratings first","female",31,22,FALSE
837260989,"ObjectBlack",1,"CR",610,"object","Flowers-Insects IAT","congruent","ratings first","female",31,22,FALSE
837260989,"ObjectBlack",1,"CR",558,"object","Flowers-Insects IAT","congruent","ratings first","female",31,22,FALSE
837260989,"GunBlack",1,"Hit",563,"gun","Flowers-Insects IAT","congruent","ratings first","female",31,22,FALSE
837260989,"ObjectBlack",1,"CR",651,"object","Flowers-Insects IAT","congruent","ratings first","female",31,22,FALSE
837260989,"ObjectBlack",1,"CR",586,"object","Flowers-Insects IAT","congruent","ratings first","female",31,22,FALSE
837260989,"ObjectBlack",0,"FA",599,"object","Flowers-Insects IAT","congruent","ratings first","female",31,22,FALSE
837260989,"GunBlack",1,"Hit",534,"gun","Flowers-Insects IAT","congruent","ratings first","female",31,22,FALSE
837260989,"GunBlack",1,"Hit",448,"gun","Flowers-Insects IAT","congruent","ratings first","female",31,22,FALSE
837260989,"GunBlack",1,"Hit",497,"gun","Flowers-Insects IAT","congruent","ratings first","female",31,22,FALSE
837260989,"GunBlack",1,"Hit",402,"gun","Flowers-Insects IAT","congruent","ratings first","female",31,22,FALSE
837260989,"ObjectBlack",1,"CR",663,"object","Flowers-Insects IAT","congruent","ratings first","female",31,22,FALSE
837260989,"GunBlack",1,"Hit",556,"gun","Flowers-Insects IAT","congruent","ratings first","female",31,22,FALSE
837260989,"GunBlack",1,"Hit",519,"gun","Flowers-Insects IAT","congruent","ratings first","female",31,22,FALSE
837260989,"GunBlack",1,"Hit",504,"gun","Flowers-Insects IAT","congruent","ratings first","female",31,22,FALSE
837260989,"GunBlack",1,"Hit",465,"gun","Flowers-Insects IAT","congruent","ratings first","female",31,22,FALSE
837260989,"GunBlack",1,"Hit",453,"gun","Flowers-Insects IAT","congruent","ratings first","female",31,22,FALSE
837260989,"GunBlack",1,"Hit",542,"gun","Flowers-Insects IAT","congruent","ratings first","female",31,22,FALSE
837260989,"GunBlack",1,"Hit",454,"gun","Flowers-Insects IAT","congruent","ratings first","female",31,22,FALSE
837260989,"GunBlack",0,"Miss",118,"gun","Flowers-Insects IAT","congruent","ratings first","female",31,22,FALSE
837260989,"GunBlack",1,"Hit",406,"gun","Flowers-Insects IAT","congruent","ratings first","female",31,22,FALSE
7205392,"GunBlack",1,"Hit",769,"gun","Flowers-Insects IAT","incongruent","SCIAT first","male",34,15,FALSE
7205392,"ObjectBlack",1,"CR",590,"object","Flowers-Insects IAT","incongruent","SCIAT first","male",34,15,FALSE
7205392,"GunBlack",1,"Hit",668,"gun","Flowers-Insects IAT","incongruent","SCIAT first","male",34,15,FALSE
7205392,"GunBlack",1,"Hit",641,"gun","Flowers-Insects IAT","incongruent","SCIAT first","male",34,15,FALSE
7205392,"GunBlack",1,"Hit",556,"gun","Flowers-Insects IAT","incongruent","SCIAT first","male",34,15,FALSE
7205392,"GunBlack",1,"Hit",686,"gun","Flowers-Insects IAT","incongruent","SCIAT first","male",34,15,FALSE
7205392,"ObjectBlack",1,"CR",761,"object","Flowers-Insects IAT","incongruent","SCIAT first","male",34,15,FALSE
7205392,"GunBlack",1,"Hit",558,"gun","Flowers-Insects IAT","incongruent","SCIAT first","male",34,15,FALSE
7205392,"GunBlack",1,"Hit",552,"gun","Flowers-Insects IAT","incongruent","SCIAT first","male",34,15,FALSE
7205392,"GunBlack",1,"Hit",601,"gun","Flowers-Insects IAT","incongruent","SCIAT first","male",34,15,FALSE
7205392,"ObjectBlack",1,"CR",733,"object","Flowers-Insects IAT","incongruent","SCIAT first","male",34,15,FALSE
7205392,"ObjectBlack",1,"CR",840,"object","Flowers-Insects IAT","incongruent","SCIAT first","male",34,15,FALSE
7205392,"GunBlack",1,"Hit",580,"gun","Flowers-Insects IAT","incongruent","SCIAT first","male",34,15,FALSE
7205392,"GunBlack",1,"Hit",657,"gun","Flowers-Insects IAT","incongruent","SCIAT first","male",34,15,FALSE
7205392,"GunBlack",1,"Hit",790,"gun","Flowers-Insects IAT","incongruent","SCIAT first","male",34,15,FALSE
7205392,"ObjectBlack",1,"CR",835,"object","Flowers-Insects IAT","incongruent","SCIAT first","male",34,15,FALSE
7205392,"ObjectBlack",1,"CR",737,"object","Flowers-Insects IAT","incongruent","SCIAT first","male",34,15,FALSE
7205392,"ObjectBlack",1,"CR",634,"object","Flowers-Insects IAT","incongruent","SCIAT first","male",34,15,FALSE
7205392,"GunBlack",1,"Hit",743,"gun","Flowers-Insects IAT","incongruent","SCIAT first","male",34,15,FALSE
7205392,"ObjectBlack",1,"CR",602,"object","Flowers-Insects IAT","incongruent","SCIAT first","male",34,15,FALSE
7205392,"ObjectBlack",1,"CR",647,"object","Flowers-Insects IAT","incongruent","SCIAT first","male",34,15,FALSE
7205392,"ObjectBlack",1,"CR",649,"object","Flowers-Insects IAT","incongruent","SCIAT first","male",34,15,FALSE
7205392,"ObjectBlack",1,"CR",646,"object","Flowers-Insects IAT","incongruent","SCIAT first","male",34,15,FALSE
7205392,"ObjectBlack",1,"CR",597,"object","Flowers-Insects IAT","incongruent","SCIAT first","male",34,15,FALSE
7205392,"GunBlack",1,"Hit",450,"gun","Flowers-Insects IAT","incongruent","SCIAT first","male",34,15,FALSE
7205392,"ObjectBlack",1,"CR",610,"object","Flowers-Insects IAT","incongruent","SCIAT first","male",34,15,FALSE
7205392,"ObjectBlack",1,"CR",655,"object","Flowers-Insects IAT","incongruent","SCIAT first","male",34,15,FALSE
7205392,"GunBlack",1,"Hit",719,"gun","Flowers-Insects IAT","incongruent","SCIAT first","male",34,15,FALSE
7205392,"ObjectBlack",1,"CR",499,"object","Flowers-Insects IAT","incongruent","SCIAT first","male",34,15,FALSE
7205392,"ObjectBlack",1,"CR",552,"object","Flowers-Insects IAT","incongruent","SCIAT first","male",34,15,FALSE
7205392,"ObjectBlack",1,"CR",731,"object","Flowers-Insects IAT","incongruent","SCIAT first","male",34,15,FALSE
7205392,"ObjectBlack",1,"CR",652,"object","Flowers-Insects IAT","incongruent","SCIAT first","male",34,15,FALSE
7205392,"GunBlack",1,"Hit",625,"gun","Flowers-Insects IAT","incongruent","SCIAT first","male",34,15,FALSE
7205392,"GunBlack",1,"Hit",450,"gun","Flowers-Insects IAT","incongruent","SCIAT first","male",34,15,FALSE
7205392,"ObjectBlack",1,"CR",589,"object","Flowers-Insects IAT","incongruent","SCIAT first","male",34,15,FALSE
7205392,"GunBlack",1,"Hit",658,"gun","Flowers-Insects IAT","incongruent","SCIAT first","male",34,15,FALSE
7205392,"GunBlack",1,"Hit",669,"gun","Flowers-Insects IAT","incongruent","SCIAT first","male",34,15,FALSE
7205392,"GunBlack",1,"Hit",722,"gun","Flowers-Insects IAT","incongruent","SCIAT first","male",34,15,FALSE
7205392,"GunBlack",1,"Hit",569,"gun","Flowers-Insects IAT","incongruent","SCIAT first","male",34,15,FALSE
7205392,"GunBlack",1,"Hit",463,"gun","Flowers-Insects IAT","incongruent","SCIAT first","male",34,15,FALSE
7205392,"ObjectBlack",1,"CR",690,"object","Flowers-Insects IAT","incongruent","SCIAT first","male",34,15,FALSE
7205392,"ObjectBlack",1,"CR",717,"object","Flowers-Insects IAT","incongruent","SCIAT first","male",34,15,FALSE
7205392,"GunBlack",1,"Hit",682,"gun","Flowers-Insects IAT","incongruent","SCIAT first","male",34,15,FALSE
7205392,"GunBlack",1,"Hit",652,"gun","Flowers-Insects IAT","incongruent","SCIAT first","male",34,15,FALSE
7205392,"GunBlack",1,"Hit",521,"gun","Flowers-Insects IAT","incongruent","SCIAT first","male",34,15,FALSE
7205392,"ObjectBlack",1,"CR",698,"object","Flowers-Insects IAT","incongruent","SCIAT first","male",34,15,FALSE
7205392,"ObjectBlack",1,"CR",601,"object","Flowers-Insects IAT","incongruent","SCIAT first","male",34,15,FALSE
7205392,"GunBlack",1,"Hit",717,"gun","Flowers-Insects IAT","incongruent","SCIAT first","male",34,15,FALSE
7205392,"GunBlack",1,"Hit",542,"gun","Flowers-Insects IAT","incongruent","SCIAT first","male",34,15,FALSE
7205392,"ObjectBlack",1,"CR",663,"object","Flowers-Insects IAT","incongruent","SCIAT first","male",34,15,FALSE
7205392,"ObjectBlack",1,"CR",702,"object","Flowers-Insects IAT","incongruent","SCIAT first","male",34,15,FALSE
7205392,"ObjectBlack",1,"CR",759,"object","Flowers-Insects IAT","incongruent","SCIAT first","male",34,15,FALSE
7205392,"ObjectBlack",1,"CR",804,"object","Flowers-Insects IAT","incongruent","SCIAT first","male",34,15,FALSE
7205392,"ObjectBlack",1,"CR",641,"object","Flowers-Insects IAT","incongruent","SCIAT first","male",34,15,FALSE
7205392,"GunBlack",1,"Hit",623,"gun","Flowers-Insects IAT","incongruent","SCIAT first","male",34,15,FALSE
7205392,"GunBlack",1,"Hit",584,"gun","Flowers-Insects IAT","incongruent","SCIAT first","male",34,15,FALSE
7205392,"GunBlack",1,"Hit",529,"gun","Flowers-Insects IAT","incongruent","SCIAT first","male",34,15,FALSE
7205392,"GunBlack",1,"Hit",575,"gun","Flowers-Insects IAT","incongruent","SCIAT first","male",34,15,FALSE
7205392,"GunBlack",1,"Hit",526,"gun","Flowers-Insects IAT","incongruent","SCIAT first","male",34,15,FALSE
7205392,"GunBlack",0,"Miss",695,"gun","Flowers-Insects IAT","incongruent","SCIAT first","male",34,15,FALSE
7205392,"ObjectBlack",1,"CR",732,"object","Flowers-Insects IAT","incongruent","SCIAT first","male",34,15,FALSE
7205392,"GunBlack",1,"Hit",526,"gun","Flowers-Insects IAT","incongruent","SCIAT first","male",34,15,FALSE
7205392,"ObjectBlack",0,"FA",509,"object","Flowers-Insects IAT","incongruent","SCIAT first","male",34,15,FALSE
7205392,"GunBlack",1,"Hit",575,"gun","Flowers-Insects IAT","incongruent","SCIAT first","male",34,15,FALSE
7205392,"ObjectBlack",1,"CR",622,"object","Flowers-Insects IAT","incongruent","SCIAT first","male",34,15,FALSE
7205392,"ObjectBlack",1,"CR",702,"object","Flowers-Insects IAT","incongruent","SCIAT first","male",34,15,FALSE
7205392,"GunBlack",1,"Hit",617,"gun","Flowers-Insects IAT","incongruent","SCIAT first","male",34,15,FALSE
7205392,"ObjectBlack",1,"CR",651,"object","Flowers-Insects IAT","incongruent","SCIAT first","male",34,15,FALSE
7205392,"ObjectBlack",1,"CR",645,"object","Flowers-Insects IAT","incongruent","SCIAT first","male",34,15,FALSE
7205392,"ObjectBlack",1,"CR",573,"object","Flowers-Insects IAT","incongruent","SCIAT first","male",34,15,FALSE
7205392,"GunBlack",1,"Hit",698,"gun","Flowers-Insects IAT","incongruent","SCIAT first","male",34,15,FALSE
7205392,"GunBlack",1,"Hit",622,"gun","Flowers-Insects IAT","incongruent","SCIAT first","male",34,15,FALSE
7205392,"ObjectBlack",1,"CR",687,"object","Flowers-Insects IAT","incongruent","SCIAT first","male",34,15,FALSE
7205392,"ObjectBlack",1,"CR",624,"object","Flowers-Insects IAT","incongruent","SCIAT first","male",34,15,FALSE
7205392,"GunBlack",1,"Hit",568,"gun","Flowers-Insects IAT","incongruent","SCIAT first","male",34,15,FALSE
7205392,"ObjectBlack",1,"CR",529,"object","Flowers-Insects IAT","incongruent","SCIAT first","male",34,15,FALSE
7205392,"GunBlack",1,"Hit",656,"gun","Flowers-Insects IAT","incongruent","SCIAT first","male",34,15,FALSE
657593060,"GunBlack",1,"Hit",787,"gun","Race IAT","incongruent","SCIAT first","male",40,15,FALSE
657593060,"ObjectBlack",1,"CR",613,"object","Race IAT","incongruent","SCIAT first","male",40,15,FALSE
657593060,"GunBlack",1,"Hit",505,"gun","Race IAT","incongruent","SCIAT first","male",40,15,FALSE
657593060,"ObjectBlack",1,"CR",552,"object","Race IAT","incongruent","SCIAT first","male",40,15,FALSE
657593060,"ObjectBlack",1,"CR",595,"object","Race IAT","incongruent","SCIAT first","male",40,15,FALSE
657593060,"GunBlack",1,"Hit",611,"gun","Race IAT","incongruent","SCIAT first","male",40,15,FALSE
657593060,"GunBlack",1,"Hit",605,"gun","Race IAT","incongruent","SCIAT first","male",40,15,FALSE
657593060,"GunBlack",1,"Hit",482,"gun","Race IAT","incongruent","SCIAT first","male",40,15,FALSE
657593060,"ObjectBlack",1,"CR",631,"object","Race IAT","incongruent","SCIAT first","male",40,15,FALSE
657593060,"GunBlack",1,"Hit",659,"gun","Race IAT","incongruent","SCIAT first","male",40,15,FALSE
657593060,"ObjectBlack",1,"CR",691,"object","Race IAT","incongruent","SCIAT first","male",40,15,FALSE
657593060,"ObjectBlack",1,"CR",745,"object","Race IAT","incongruent","SCIAT first","male",40,15,FALSE
657593060,"GunBlack",1,"Hit",539,"gun","Race IAT","incongruent","SCIAT first","male",40,15,FALSE
657593060,"GunBlack",1,"Hit",461,"gun","Race IAT","incongruent","SCIAT first","male",40,15,FALSE
657593060,"GunBlack",1,"Hit",484,"gun","Race IAT","incongruent","SCIAT first","male",40,15,FALSE
657593060,"ObjectBlack",1,"CR",575,"object","Race IAT","incongruent","SCIAT first","male",40,15,FALSE
657593060,"GunBlack",1,"Hit",500,"gun","Race IAT","incongruent","SCIAT first","male",40,15,FALSE
657593060,"GunBlack",1,"Hit",510,"gun","Race IAT","incongruent","SCIAT first","male",40,15,FALSE
657593060,"ObjectBlack",1,"CR",751,"object","Race IAT","incongruent","SCIAT first","male",40,15,FALSE
657593060,"GunBlack",1,"Hit",609,"gun","Race IAT","incongruent","SCIAT first","male",40,15,FALSE
657593060,"GunBlack",1,"Hit",458,"gun","Race IAT","incongruent","SCIAT first","male",40,15,FALSE
657593060,"GunBlack",1,"Hit",420,"gun","Race IAT","incongruent","SCIAT first","male",40,15,FALSE
657593060,"ObjectBlack",1,"CR",647,"object","Race IAT","incongruent","SCIAT first","male",40,15,FALSE
657593060,"GunBlack",1,"Hit",552,"gun","Race IAT","incongruent","SCIAT first","male",40,15,FALSE
657593060,"ObjectBlack",0,"FA",582,"object","Race IAT","incongruent","SCIAT first","male",40,15,FALSE
657593060,"GunBlack",1,"Hit",550,"gun","Race IAT","incongruent","SCIAT first","male",40,15,FALSE
657593060,"ObjectBlack",1,"CR",552,"object","Race IAT","incongruent","SCIAT first","male",40,15,FALSE
657593060,"ObjectBlack",1,"CR",457,"object","Race IAT","incongruent","SCIAT first","male",40,15,FALSE
657593060,"ObjectBlack",1,"CR",598,"object","Race IAT","incongruent","SCIAT first","male",40,15,FALSE
657593060,"ObjectBlack",1,"CR",658,"object","Race IAT","incongruent","SCIAT first","male",40,15,FALSE
657593060,"GunBlack",1,"Hit",753,"gun","Race IAT","incongruent","SCIAT first","male",40,15,FALSE
657593060,"GunBlack",1,"Hit",511,"gun","Race IAT","incongruent","SCIAT first","male",40,15,FALSE
657593060,"ObjectBlack",1,"CR",562,"object","Race IAT","incongruent","SCIAT first","male",40,15,FALSE
657593060,"ObjectBlack",1,"CR",677,"object","Race IAT","incongruent","SCIAT first","male",40,15,FALSE
657593060,"ObjectBlack",1,"CR",681,"object","Race IAT","incongruent","SCIAT first","male",40,15,FALSE
657593060,"ObjectBlack",1,"CR",628,"object","Race IAT","incongruent","SCIAT first","male",40,15,FALSE
657593060,"GunBlack",1,"Hit",571,"gun","Race IAT","incongruent","SCIAT first","male",40,15,FALSE
657593060,"ObjectBlack",1,"CR",676,"object","Race IAT","incongruent","SCIAT first","male",40,15,FALSE
657593060,"ObjectBlack",1,"CR",558,"object","Race IAT","incongruent","SCIAT first","male",40,15,FALSE
657593060,"ObjectBlack",1,"CR",614,"object","Race IAT","incongruent","SCIAT first","male",40,15,FALSE
657593060,"GunBlack",1,"Hit",464,"gun","Race IAT","incongruent","SCIAT first","male",40,15,FALSE
657593060,"GunBlack",1,"Hit",768,"gun","Race IAT","incongruent","SCIAT first","male",40,15,FALSE
657593060,"GunBlack",0,"Miss",619,"gun","Race IAT","incongruent","SCIAT first","male",40,15,FALSE
657593060,"ObjectBlack",1,"CR",631,"object","Race IAT","incongruent","SCIAT first","male",40,15,FALSE
657593060,"ObjectBlack",1,"CR",733,"object","Race IAT","incongruent","SCIAT first","male",40,15,FALSE
657593060,"ObjectBlack",1,"CR",633,"object","Race IAT","incongruent","SCIAT first","male",40,15,FALSE
657593060,"ObjectBlack",1,"CR",555,"object","Race IAT","incongruent","SCIAT first","male",40,15,FALSE
657593060,"ObjectBlack",1,"CR",549,"object","Race IAT","incongruent","SCIAT first","male",40,15,FALSE
657593060,"ObjectBlack",1,"CR",641,"object","Race IAT","incongruent","SCIAT first","male",40,15,FALSE
657593060,"ObjectBlack",1,"CR",521,"object","Race IAT","incongruent","SCIAT first","male",40,15,FALSE
657593060,"ObjectBlack",1,"CR",671,"object","Race IAT","incongruent","SCIAT first","male",40,15,FALSE
657593060,"GunBlack",1,"Hit",688,"gun","Race IAT","incongruent","SCIAT first","male",40,15,FALSE
657593060,"GunBlack",1,"Hit",623,"gun","Race IAT","incongruent","SCIAT first","male",40,15,FALSE
657593060,"GunBlack",1,"Hit",575,"gun","Race IAT","incongruent","SCIAT first","male",40,15,FALSE
657593060,"GunBlack",1,"Hit",548,"gun","Race IAT","incongruent","SCIAT first","male",40,15,FALSE
657593060,"ObjectBlack",1,"CR",656,"object","Race IAT","incongruent","SCIAT first","male",40,15,FALSE
657593060,"GunBlack",1,"Hit",616,"gun","Race IAT","incongruent","SCIAT first","male",40,15,FALSE
657593060,"GunBlack",1,"Hit",699,"gun","Race IAT","incongruent","SCIAT first","male",40,15,FALSE
657593060,"ObjectBlack",1,"CR",639,"object","Race IAT","incongruent","SCIAT first","male",40,15,FALSE
657593060,"GunBlack",1,"Hit",666,"gun","Race IAT","incongruent","SCIAT first","male",40,15,FALSE
657593060,"GunBlack",1,"Hit",421,"gun","Race IAT","incongruent","SCIAT first","male",40,15,FALSE
657593060,"GunBlack",1,"Hit",447,"gun","Race IAT","incongruent","SCIAT first","male",40,15,FALSE
657593060,"GunBlack",1,"Hit",446,"gun","Race IAT","incongruent","SCIAT first","male",40,15,FALSE
657593060,"GunBlack",1,"Hit",683,"gun","Race IAT","incongruent","SCIAT first","male",40,15,FALSE
657593060,"ObjectBlack",1,"CR",744,"object","Race IAT","incongruent","SCIAT first","male",40,15,FALSE
657593060,"ObjectBlack",1,"CR",694,"object","Race IAT","incongruent","SCIAT first","male",40,15,FALSE
657593060,"ObjectBlack",1,"CR",553,"object","Race IAT","incongruent","SCIAT first","male",40,15,FALSE
657593060,"GunBlack",1,"Hit",549,"gun","Race IAT","incongruent","SCIAT first","male",40,15,FALSE
657593060,"ObjectBlack",1,"CR",623,"object","Race IAT","incongruent","SCIAT first","male",40,15,FALSE
657593060,"GunBlack",1,"Hit",686,"gun","Race IAT","incongruent","SCIAT first","male",40,15,FALSE
657593060,"ObjectBlack",0,"FA",455,"object","Race IAT","incongruent","SCIAT first","male",40,15,FALSE
657593060,"GunBlack",1,"Hit",658,"gun","Race IAT","incongruent","SCIAT first","male",40,15,FALSE
657593060,"GunBlack",1,"Hit",647,"gun","Race IAT","incongruent","SCIAT first","male",40,15,FALSE
657593060,"ObjectBlack",1,"CR",774,"object","Race IAT","incongruent","SCIAT first","male",40,15,FALSE
657593060,"ObjectBlack",1,"CR",614,"object","Race IAT","incongruent","SCIAT first","male",40,15,FALSE
657593060,"GunBlack",1,"Hit",479,"gun","Race IAT","incongruent","SCIAT first","male",40,15,FALSE
657593060,"ObjectBlack",1,"CR",642,"object","Race IAT","incongruent","SCIAT first","male",40,15,FALSE
325320975,"ObjectBlack",1,"CR",562,"object","Flowers-Insects IAT","congruent","SCIAT first","male",45,17,FALSE
325320975,"GunBlack",1,"Hit",621,"gun","Flowers-Insects IAT","congruent","SCIAT first","male",45,17,FALSE
325320975,"ObjectBlack",1,"CR",661,"object","Flowers-Insects IAT","congruent","SCIAT first","male",45,17,FALSE
325320975,"ObjectBlack",1,"CR",752,"object","Flowers-Insects IAT","congruent","SCIAT first","male",45,17,FALSE
325320975,"ObjectBlack",1,"CR",651,"object","Flowers-Insects IAT","congruent","SCIAT first","male",45,17,FALSE
325320975,"GunBlack",1,"Hit",449,"gun","Flowers-Insects IAT","congruent","SCIAT first","male",45,17,FALSE
325320975,"GunBlack",1,"Hit",728,"gun","Flowers-Insects IAT","congruent","SCIAT first","male",45,17,FALSE
325320975,"ObjectBlack",1,"CR",664,"object","Flowers-Insects IAT","congruent","SCIAT first","male",45,17,FALSE
325320975,"ObjectBlack",1,"CR",559,"object","Flowers-Insects IAT","congruent","SCIAT first","male",45,17,FALSE
325320975,"ObjectBlack",1,"CR",750,"object","Flowers-Insects IAT","congruent","SCIAT first","male",45,17,FALSE
325320975,"ObjectBlack",1,"CR",540,"object","Flowers-Insects IAT","congruent","SCIAT first","male",45,17,FALSE
325320975,"GunBlack",0,"Miss",704,"gun","Flowers-Insects IAT","congruent","SCIAT first","male",45,17,FALSE
325320975,"GunBlack",1,"Hit",709,"gun","Flowers-Insects IAT","congruent","SCIAT first","male",45,17,FALSE
325320975,"GunBlack",1,"Hit",584,"gun","Flowers-Insects IAT","congruent","SCIAT first","male",45,17,FALSE
325320975,"GunBlack",0,"Miss",481,"gun","Flowers-Insects IAT","congruent","SCIAT first","male",45,17,FALSE
325320975,"ObjectBlack",1,"CR",831,"object","Flowers-Insects IAT","congruent","SCIAT first","male",45,17,FALSE
325320975,"ObjectBlack",1,"CR",698,"object","Flowers-Insects IAT","congruent","SCIAT first","male",45,17,FALSE
325320975,"GunBlack",1,"Hit",640,"gun","Flowers-Insects IAT","congruent","SCIAT first","male",45,17,FALSE
325320975,"ObjectBlack",1,"CR",718,"object","Flowers-Insects IAT","congruent","SCIAT first","male",45,17,FALSE
325320975,"ObjectBlack",1,"CR",823,"object","Flowers-Insects IAT","congruent","SCIAT first","male",45,17,FALSE
325320975,"ObjectBlack",1,"CR",591,"object","Flowers-Insects IAT","congruent","SCIAT first","male",45,17,FALSE
325320975,"ObjectBlack",1,"CR",656,"object","Flowers-Insects IAT","congruent","SCIAT first","male",45,17,FALSE
325320975,"GunBlack",1,"Hit",667,"gun","Flowers-Insects IAT","congruent","SCIAT first","male",45,17,FALSE
325320975,"GunBlack",1,"Hit",545,"gun","Flowers-Insects IAT","congruent","SCIAT first","male",45,17,FALSE
325320975,"ObjectBlack",1,"CR",577,"object","Flowers-Insects IAT","congruent","SCIAT first","male",45,17,FALSE
325320975,"ObjectBlack",1,"CR",627,"object","Flowers-Insects IAT","congruent","SCIAT first","male",45,17,FALSE
325320975,"ObjectBlack",1,"CR",630,"object","Flowers-Insects IAT","congruent","SCIAT first","male",45,17,FALSE
325320975,"GunBlack",0,"Miss",630,"gun","Flowers-Insects IAT","congruent","SCIAT first","male",45,17,FALSE
325320975,"GunBlack",1,"Hit",649,"gun","Flowers-Insects IAT","congruent","SCIAT first","male",45,17,FALSE
325320975,"ObjectBlack",1,"CR",611,"object","Flowers-Insects IAT","congruent","SCIAT first","male",45,17,FALSE
325320975,"GunBlack",1,"Hit",752,"gun","Flowers-Insects IAT","congruent","SCIAT first","male",45,17,FALSE
325320975,"GunBlack",1,"Hit",660,"gun","Flowers-Insects IAT","congruent","SCIAT first","male",45,17,FALSE
325320975,"ObjectBlack",1,"CR",685,"object","Flowers-Insects IAT","congruent","SCIAT first","male",45,17,FALSE
325320975,"ObjectBlack",1,"CR",839,"object","Flowers-Insects IAT","congruent","SCIAT first","male",45,17,FALSE
325320975,"GunBlack",1,"Hit",647,"gun","Flowers-Insects IAT","congruent","SCIAT first","male",45,17,FALSE
325320975,"GunBlack",0,"Miss",690,"gun","Flowers-Insects IAT","congruent","SCIAT first","male",45,17,FALSE
325320975,"GunBlack",1,"Hit",652,"gun","Flowers-Insects IAT","congruent","SCIAT first","male",45,17,FALSE
325320975,"ObjectBlack",1,"CR",710,"object","Flowers-Insects IAT","congruent","SCIAT first","male",45,17,FALSE
325320975,"GunBlack",1,"Hit",710,"gun","Flowers-Insects IAT","congruent","SCIAT first","male",45,17,FALSE
325320975,"ObjectBlack",1,"CR",792,"object","Flowers-Insects IAT","congruent","SCIAT first","male",45,17,FALSE
325320975,"GunBlack",1,"Hit",633,"gun","Flowers-Insects IAT","congruent","SCIAT first","male",45,17,FALSE
325320975,"ObjectBlack",1,"CR",744,"object","Flowers-Insects IAT","congruent","SCIAT first","male",45,17,FALSE
325320975,"ObjectBlack",1,"CR",559,"object","Flowers-Insects IAT","congruent","SCIAT first","male",45,17,FALSE
325320975,"ObjectBlack",1,"CR",642,"object","Flowers-Insects IAT","congruent","SCIAT first","male",45,17,FALSE
325320975,"ObjectBlack",1,"CR",657,"object","Flowers-Insects IAT","congruent","SCIAT first","male",45,17,FALSE
325320975,"ObjectBlack",1,"CR",705,"object","Flowers-Insects IAT","congruent","SCIAT first","male",45,17,FALSE
325320975,"GunBlack",1,"Hit",702,"gun","Flowers-Insects IAT","congruent","SCIAT first","male",45,17,FALSE
325320975,"GunBlack",1,"Hit",646,"gun","Flowers-Insects IAT","congruent","SCIAT first","male",45,17,FALSE
325320975,"GunBlack",1,"Hit",581,"gun","Flowers-Insects IAT","congruent","SCIAT first","male",45,17,FALSE
325320975,"ObjectBlack",1,"CR",740,"object","Flowers-Insects IAT","congruent","SCIAT first","male",45,17,FALSE
325320975,"GunBlack",1,"Hit",651,"gun","Flowers-Insects IAT","congruent","SCIAT first","male",45,17,FALSE
325320975,"ObjectBlack",1,"CR",646,"object","Flowers-Insects IAT","congruent","SCIAT first","male",45,17,FALSE
325320975,"GunBlack",1,"Hit",637,"gun","Flowers-Insects IAT","congruent","SCIAT first","male",45,17,FALSE
325320975,"ObjectBlack",1,"CR",633,"object","Flowers-Insects IAT","congruent","SCIAT first","male",45,17,FALSE
325320975,"GunBlack",1,"Hit",657,"gun","Flowers-Insects IAT","congruent","SCIAT first","male",45,17,FALSE
325320975,"GunBlack",1,"Hit",558,"gun","Flowers-Insects IAT","congruent","SCIAT first","male",45,17,FALSE
325320975,"ObjectBlack",1,"CR",796,"object","Flowers-Insects IAT","congruent","SCIAT first","male",45,17,FALSE
325320975,"ObjectBlack",1,"CR",714,"object","Flowers-Insects IAT","congruent","SCIAT first","male",45,17,FALSE
325320975,"ObjectBlack",1,"CR",754,"object","Flowers-Insects IAT","congruent","SCIAT first","male",45,17,FALSE
325320975,"GunBlack",1,"Hit",717,"gun","Flowers-Insects IAT","congruent","SCIAT first","male",45,17,FALSE
325320975,"ObjectBlack",1,"CR",562,"object","Flowers-Insects IAT","congruent","SCIAT first","male",45,17,FALSE
325320975,"GunBlack",1,"Hit",572,"gun","Flowers-Insects IAT","congruent","SCIAT first","male",45,17,FALSE
325320975,"GunBlack",1,"Hit",698,"gun","Flowers-Insects IAT","congruent","SCIAT first","male",45,17,FALSE
325320975,"GunBlack",1,"Hit",651,"gun","Flowers-Insects IAT","congruent","SCIAT first","male",45,17,FALSE
325320975,"GunBlack",1,"Hit",626,"gun","Flowers-Insects IAT","congruent","SCIAT first","male",45,17,FALSE
325320975,"GunBlack",1,"Hit",694,"gun","Flowers-Insects IAT","congruent","SCIAT first","male",45,17,FALSE
325320975,"GunBlack",1,"Hit",548,"gun","Flowers-Insects IAT","congruent","SCIAT first","male",45,17,FALSE
325320975,"GunBlack",1,"Hit",603,"gun","Flowers-Insects IAT","congruent","SCIAT first","male",45,17,FALSE
325320975,"ObjectBlack",1,"CR",772,"object","Flowers-Insects IAT","congruent","SCIAT first","male",45,17,FALSE
325320975,"ObjectBlack",1,"CR",742,"object","Flowers-Insects IAT","congruent","SCIAT first","male",45,17,FALSE
325320975,"ObjectBlack",1,"CR",662,"object","Flowers-Insects IAT","congruent","SCIAT first","male",45,17,FALSE
325320975,"GunBlack",1,"Hit",756,"gun","Flowers-Insects IAT","congruent","SCIAT first","male",45,17,FALSE
325320975,"ObjectBlack",1,"CR",679,"object","Flowers-Insects IAT","congruent","SCIAT first","male",45,17,FALSE
325320975,"GunBlack",1,"Hit",616,"gun","Flowers-Insects IAT","congruent","SCIAT first","male",45,17,FALSE
325320975,"ObjectBlack",1,"CR",643,"object","Flowers-Insects IAT","congruent","SCIAT first","male",45,17,FALSE
148231489,"ObjectBlack",1,"CR",742,"object","Race IAT","congruent","ratings first","female",28,20,FALSE
148231489,"ObjectBlack",1,"CR",679,"object","Race IAT","congruent","ratings first","female",28,20,FALSE
148231489,"ObjectBlack",0,"FA",569,"object","Race IAT","congruent","ratings first","female",28,20,FALSE
148231489,"ObjectBlack",1,"CR",632,"object","Race IAT","congruent","ratings first","female",28,20,FALSE
148231489,"GunBlack",0,"Miss",585,"gun","Race IAT","congruent","ratings first","female",28,20,FALSE
148231489,"ObjectBlack",1,"CR",772,"object","Race IAT","congruent","ratings first","female",28,20,FALSE
148231489,"GunBlack",1,"Hit",542,"gun","Race IAT","congruent","ratings first","female",28,20,FALSE
148231489,"ObjectBlack",1,"CR",664,"object","Race IAT","congruent","ratings first","female",28,20,FALSE
148231489,"GunBlack",1,"Hit",657,"gun","Race IAT","congruent","ratings first","female",28,20,FALSE
148231489,"ObjectBlack",1,"CR",710,"object","Race IAT","congruent","ratings first","female",28,20,FALSE
148231489,"ObjectBlack",1,"CR",709,"object","Race IAT","congruent","ratings first","female",28,20,FALSE
148231489,"GunBlack",1,"Hit",560,"gun","Race IAT","congruent","ratings first","female",28,20,FALSE
148231489,"ObjectBlack",1,"CR",740,"object","Race IAT","congruent","ratings first","female",28,20,FALSE
148231489,"GunBlack",1,"Hit",720,"gun","Race IAT","congruent","ratings first","female",28,20,FALSE
148231489,"GunBlack",1,"Hit",505,"gun","Race IAT","congruent","ratings first","female",28,20,FALSE
148231489,"ObjectBlack",1,"CR",681,"object","Race IAT","congruent","ratings first","female",28,20,FALSE
148231489,"ObjectBlack",1,"CR",618,"object","Race IAT","congruent","ratings first","female",28,20,FALSE
148231489,"ObjectBlack",1,"CR",654,"object","Race IAT","congruent","ratings first","female",28,20,FALSE
148231489,"ObjectBlack",1,"CR",548,"object","Race IAT","congruent","ratings first","female",28,20,FALSE
148231489,"GunBlack",1,"Hit",601,"gun","Race IAT","congruent","ratings first","female",28,20,FALSE
148231489,"GunBlack",1,"Hit",484,"gun","Race IAT","congruent","ratings first","female",28,20,FALSE
148231489,"ObjectBlack",1,"CR",597,"object","Race IAT","congruent","ratings first","female",28,20,FALSE
148231489,"ObjectBlack",1,"CR",581,"object","Race IAT","congruent","ratings first","female",28,20,FALSE
148231489,"GunBlack",1,"Hit",580,"gun","Race IAT","congruent","ratings first","female",28,20,FALSE
148231489,"GunBlack",1,"Hit",553,"gun","Race IAT","congruent","ratings first","female",28,20,FALSE
148231489,"GunBlack",1,"Hit",484,"gun","Race IAT","congruent","ratings first","female",28,20,FALSE
148231489,"GunBlack",1,"Hit",393,"gun","Race IAT","congruent","ratings first","female",28,20,FALSE
148231489,"ObjectBlack",1,"CR",519,"object","Race IAT","congruent","ratings first","female",28,20,FALSE
148231489,"ObjectBlack",1,"CR",546,"object","Race IAT","congruent","ratings first","female",28,20,FALSE
