"participant","complete","gender","age","modern_racism_scale_total","mean_rating","IAT_mean_RT","IAT_perc_acc","IAT_exclude_based_on_fast_trials","percentage.Hit","percentage.FA","d","c","shooter_mean_RT","shooter_perc_acc","exclude","condition","IAT_condition","block_order","task_order"
4497834,TRUE,"female",20,16,4,744,0.95,FALSE,0.925,0.03,3.316,0.218,635,0.95,FALSE,2,"Race IAT","incongruent","ratings first"
7205392,TRUE,"male",34,15,3.33,720,0.98,FALSE,0.974,0.026,3.887,-0.006,638,0.97,FALSE,8,"Flowers-Insects IAT","incongruent","SCIAT first"
14020169,TRUE,"female",44,22,4,948,0.98,FALSE,0.949,0.059,3.197,-0.034,657,0.95,FALSE,1,"Race IAT","congruent","ratings first"
22506001,TRUE,"male",24,15,4.67,916,0.92,FALSE,0.947,0.027,3.546,0.153,656,0.96,FALSE,1,"Race IAT","congruent","ratings first"
27087659,TRUE,"female",49,18,4.67,1206,0.98,FALSE,0.842,0.212,1.802,-0.102,682,0.82,FALSE,3,"Race IAT","congruent","SCIAT first"
27226757,TRUE,"female",25,14,6.17,1051,0.98,FALSE,0.806,0.1,2.143,0.21,702,0.85,FALSE,5,"Flowers-Insects IAT","congruent","ratings first"
28012583,TRUE,"female",33,18,6,763,0.87,FALSE,0.825,0.105,2.187,0.159,592,0.86,FALSE,7,"Flowers-Insects IAT","congruent","SCIAT first"
29137271,TRUE,"female",33,15,4,1237,0.97,FALSE,0.971,0.114,3.094,-0.343,704,0.93,FALSE,7,"Flowers-Insects IAT","congruent","SCIAT first"
34712061,TRUE,"female",50,19,4,985,1,FALSE,0.947,0.121,2.789,-0.225,679,0.92,FALSE,5,"Flowers-Insects IAT","congruent","ratings first"
35342861,FALSE,NA,NA,NA,NA,NA,NA,NA,NA,NA,NA,NA,NA,NA,TRUE,5,"Flowers-Insects IAT","congruent","ratings first"
38779001,TRUE,"female",38,16,4.83,687,0.97,FALSE,0.944,0.054,3.2,0.007,635,0.95,FALSE,1,"Race IAT","congruent","ratings first"
41400304,TRUE,"male",21,16,6,681,0.9,FALSE,0.921,0.006,3.91,0.543,651,0.96,FALSE,8,"Flowers-Insects IAT","incongruent","SCIAT first"
43711846,FALSE,NA,NA,NA,NA,NA,NA,NA,NA,NA,NA,NA,NA,NA,TRUE,6,"Flowers-Insects IAT","incongruent","ratings first"
43912010,TRUE,"male",24,12,4.67,892,0.88,FALSE,0.775,0.053,2.375,0.432,677,0.86,FALSE,2,"Race IAT","incongruent","ratings first"
44646583,TRUE,"male",52,20,6.17,796,0.96,FALSE,0.949,0.162,2.618,-0.323,643,0.89,FALSE,7,"Flowers-Insects IAT","congruent","SCIAT first"
44915286,TRUE,"male",43,25,2.33,827,0.99,FALSE,0.947,0.006,4.118,0.439,644,0.97,FALSE,6,"Flowers-Insects IAT","incongruent","ratings first"
45824312,TRUE,"female",37,12,5.83,753,0.97,FALSE,0.975,0.026,3.898,-0.011,637,0.97,FALSE,8,"Flowers-Insects IAT","incongruent","SCIAT first"
45897747,TRUE,"female",29,17,4.67,857,0.97,FALSE,0.9,0.083,2.665,0.051,640,0.91,FALSE,3,"Race IAT","congruent","SCIAT first"
52391494,FALSE,NA,NA,NA,NA,NA,NA,NA,NA,NA,NA,NA,NA,NA,TRUE,6,"Flowers-Insects IAT","incongruent","ratings first"
54779480,FALSE,NA,NA,NA,NA,NA,NA,NA,NA,NA,NA,NA,NA,NA,TRUE,8,"Flowers-Insects IAT","incongruent","SCIAT first"
57250160,TRUE,"male",36,15,4.5,798,0.98,FALSE,0.95,0.026,3.594,0.152,577,0.96,FALSE,8,"Flowers-Insects IAT","incongruent","SCIAT first"
61784683,TRUE,"female",47,16,7,1739,0.99,FALSE,0.919,0.079,2.81,0.007,689,0.92,FALSE,3,"Race IAT","congruent","SCIAT first"
62983505,TRUE,"female",63,17,3.33,1677,0.99,FALSE,0.895,0.189,2.133,-0.186,606,0.85,FALSE,1,"Race IAT","congruent","ratings first"
64634778,TRUE,"female",25,11,4,1019,0.98,FALSE,0.973,0.062,3.461,-0.196,705,0.96,FALSE,2,"Race IAT","incongruent","ratings first"
65123836,TRUE,"male",25,15,4.5,610,0.89,FALSE,0.9,0.051,2.914,0.175,581,0.92,FALSE,4,"Race IAT","incongruent","SCIAT first"
68906880,TRUE,"male",47,15,4.67,922,0.95,FALSE,0.882,0.028,3.101,0.364,667,0.93,FALSE,8,"Flowers-Insects IAT","incongruent","SCIAT first"
71035135,FALSE,NA,NA,NA,NA,NA,NA,NA,NA,NA,NA,NA,NA,NA,TRUE,7,"Flowers-Insects IAT","congruent","SCIAT first"
71675015,TRUE,"female",64,16,3.5,1693,1,FALSE,0.806,0.24,1.571,-0.079,641,0.79,FALSE,7,"Flowers-Insects IAT","congruent","SCIAT first"
72170145,TRUE,"male",27,18,4,913,0.98,FALSE,0.994,0.028,4.412,-0.292,670,0.99,FALSE,1,"Race IAT","congruent","ratings first"
76771109,TRUE,"male",22,14,4,764,0.92,FALSE,0.474,0.077,1.36,0.746,589,0.7,FALSE,5,"Flowers-Insects IAT","congruent","ratings first"
76994235,TRUE,"female",52,15,6.17,911,0.96,FALSE,0.711,0.368,0.891,-0.109,572,0.67,FALSE,3,"Race IAT","congruent","SCIAT first"
77399296,FALSE,NA,NA,NA,NA,NA,NA,NA,NA,NA,NA,NA,NA,NA,TRUE,8,"Flowers-Insects IAT","incongruent","SCIAT first"
77526532,TRUE,"female",40,20,4,935,1,FALSE,0.943,0.135,2.682,-0.238,634,0.9,FALSE,4,"Race IAT","incongruent","SCIAT first"
80168959,FALSE,NA,NA,NA,NA,NA,NA,NA,NA,NA,NA,NA,NA,NA,TRUE,7,"Flowers-Insects IAT","congruent","SCIAT first"
80366570,FALSE,NA,NA,NA,NA,NA,NA,NA,NA,NA,NA,NA,NA,NA,TRUE,2,"Race IAT","incongruent","ratings first"
86604140,FALSE,NA,NA,NA,NA,NA,NA,NA,NA,NA,NA,NA,NA,NA,TRUE,4,"Race IAT","incongruent","SCIAT first"
89350505,TRUE,"male",64,10,5.5,942,0.94,FALSE,0.972,0.061,3.464,-0.182,657,0.96,FALSE,1,"Race IAT","congruent","ratings first"
91409689,TRUE,"male",20,16,4.5,813,0.98,FALSE,0.947,0.051,3.252,0.006,612,0.95,FALSE,1,"Race IAT","congruent","ratings first"
91445973,TRUE,"female",28,13,4,785,0.98,FALSE,0.994,0.083,3.881,-0.557,653,0.96,FALSE,5,"Flowers-Insects IAT","congruent","ratings first"
92276310,TRUE,"male",29,28,6.17,828,0.88,FALSE,0.925,0.083,2.823,-0.028,613,0.92,FALSE,6,"Flowers-Insects IAT","incongruent","ratings first"
102983176,TRUE,"female",62,19,3.83,813,0.97,FALSE,0.737,0.162,1.619,0.176,620,0.79,FALSE,8,"Flowers-Insects IAT","incongruent","SCIAT first"
103983990,FALSE,NA,NA,NA,NA,NA,NA,NA,NA,NA,NA,NA,NA,NA,TRUE,6,"Flowers-Insects IAT","incongruent","ratings first"
105966407,TRUE,"male",22,12,3.17,801,0.96,FALSE,0.825,0.205,1.758,-0.056,543,0.81,FALSE,7,"Flowers-Insects IAT","congruent","SCIAT first"
106054635,TRUE,"female ",38,13,4.33,943,0.98,FALSE,0.763,0.229,1.46,0.014,568,0.77,FALSE,3,"Race IAT","congruent","SCIAT first"
106620885,TRUE,"female",29,14,5.83,608,0.95,FALSE,0.946,0.103,2.874,-0.17,637,0.92,FALSE,5,"Flowers-Insects IAT","congruent","ratings first"
113359081,FALSE,NA,NA,NA,NA,NA,NA,NA,NA,NA,NA,NA,NA,NA,TRUE,1,"Race IAT","congruent","ratings first"
116822016,TRUE,"female",31,23,4,1113,0.98,FALSE,0.95,0.053,3.265,-0.012,642,0.95,FALSE,8,"Flowers-Insects IAT","incongruent","SCIAT first"
126336192,TRUE,"female",44,15,4,982,0.94,FALSE,0.872,0.083,2.518,0.124,647,0.89,FALSE,8,"Flowers-Insects IAT","incongruent","SCIAT first"
129848145,TRUE,"female",27,20,3.17,874,0.86,FALSE,0.821,0.176,1.846,0.006,640,0.82,FALSE,1,"Race IAT","congruent","ratings first"
131557731,TRUE,"female",48,15,6,939,0.97,FALSE,0.897,0.184,2.167,-0.184,577,0.86,FALSE,3,"Race IAT","congruent","SCIAT first"
131774082,TRUE,"male",50,18,3.17,867,0.98,FALSE,0.921,0.057,2.991,0.084,653,0.93,FALSE,2,"Race IAT","incongruent","ratings first"
143128871,TRUE,"male",30,19,4,911,0.93,FALSE,0.973,0.053,3.546,-0.153,661,0.96,FALSE,7,"Flowers-Insects IAT","congruent","SCIAT first"
145596673,TRUE,"female",24,23,4,936,0.92,FALSE,0.825,0.147,1.984,0.057,590,0.84,FALSE,1,"Race IAT","congruent","ratings first"
147347378,TRUE,"female",52,14,7,1282,0.97,FALSE,0.848,0.088,2.382,0.161,708,0.88,FALSE,2,"Race IAT","incongruent","ratings first"
147475444,TRUE,"male",28,13,4,945,0.93,FALSE,0.897,0.006,3.765,0.615,651,0.95,FALSE,4,"Race IAT","incongruent","SCIAT first"
148231489,TRUE,"female",28,20,7,697,0.94,FALSE,0.925,0.079,2.852,-0.014,565,0.92,FALSE,1,"Race IAT","congruent","ratings first"
150461530,TRUE,"male",33,22,6,890,0.97,FALSE,0.972,0.031,3.777,-0.026,635,0.97,FALSE,2,"Race IAT","incongruent","ratings first"
169236538,TRUE,"male",37,11,4,848,0.98,FALSE,0.947,0.028,3.534,0.147,658,0.96,FALSE,2,"Race IAT","incongruent","ratings first"
172722031,TRUE,"female",46,21,5.17,684,0.82,FALSE,0.744,0.179,1.572,0.131,579,0.78,FALSE,7,"Flowers-Insects IAT","congruent","SCIAT first"
174790887,TRUE,"male",34,20,4,786,0.91,FALSE,0.949,0.006,4.13,0.433,630,0.97,FALSE,7,"Flowers-Insects IAT","congruent","SCIAT first"
176652930,TRUE,"female ",45,19,4,1029,0.94,FALSE,0.946,0.026,3.545,0.166,645,0.96,FALSE,2,"Race IAT","incongruent","ratings first"
179188146,FALSE,NA,NA,NA,NA,NA,NA,NA,NA,NA,NA,NA,NA,NA,TRUE,2,"Race IAT","incongruent","ratings first"
182940083,TRUE,"female",49,16,3.83,843,0.98,FALSE,0.917,0.006,3.881,0.557,676,0.96,FALSE,3,"Race IAT","congruent","SCIAT first"
190340449,TRUE,"female",28,21,4,682,0.91,FALSE,0.925,0.111,2.66,-0.109,665,0.91,FALSE,1,"Race IAT","congruent","ratings first"
204542560,TRUE,"male",42,18,4,678,0.93,FALSE,0.975,0.025,3.92,0,579,0.98,FALSE,8,"Flowers-Insects IAT","incongruent","SCIAT first"
206997557,FALSE,NA,NA,NA,NA,NA,NA,NA,NA,NA,NA,NA,NA,NA,TRUE,5,"Flowers-Insects IAT","congruent","ratings first"
207614447,TRUE,"male",27,16,5,611,0.6,TRUE,0.946,0.079,3.019,-0.097,673,0.93,TRUE,7,"Flowers-Insects IAT","congruent","SCIAT first"
218817820,TRUE,"female",38,20,4.83,701,0.96,FALSE,0.923,0.026,3.375,0.262,625,0.95,FALSE,4,"Race IAT","incongruent","SCIAT first"
224925624,TRUE,"male",23,17,4,692,0.98,FALSE,0.925,0.079,2.852,-0.014,579,0.92,FALSE,8,"Flowers-Insects IAT","incongruent","SCIAT first"
233943787,TRUE,"male ",38,15,5,901,0.88,FALSE,0.903,0.226,2.053,-0.274,693,0.84,FALSE,3,"Race IAT","congruent","SCIAT first"
234271855,TRUE,"female",37,18,1.67,855,0.95,FALSE,0.946,0.139,2.692,-0.261,660,0.9,FALSE,7,"Flowers-Insects IAT","congruent","SCIAT first"
238431888,TRUE,"female",40,21,4.5,1111,0.92,FALSE,0.909,0.281,1.914,-0.378,669,0.82,FALSE,8,"Flowers-Insects IAT","incongruent","SCIAT first"
240102817,FALSE,NA,NA,NA,NA,NA,NA,NA,NA,NA,NA,NA,NA,NA,TRUE,1,"Race IAT","congruent","ratings first"
242700581,TRUE,"male",60,21,3.5,1108,1,FALSE,0.914,0.083,2.751,0.008,640,0.92,FALSE,5,"Flowers-Insects IAT","congruent","ratings first"
244572713,TRUE,"female",26,19,7,763,0.98,FALSE,0.994,0.079,3.91,-0.543,610,0.96,FALSE,1,"Race IAT","congruent","ratings first"
253556644,TRUE,"male",21,21,3.67,753,0.98,FALSE,0.949,0.053,3.252,-0.006,609,0.95,FALSE,4,"Race IAT","incongruent","SCIAT first"
255323643,TRUE,"male",44,16,4,923,0.98,FALSE,0.882,0.108,2.423,0.025,627,0.89,FALSE,3,"Race IAT","congruent","SCIAT first"
255740741,TRUE,"female",29,12,1.83,750,0.98,FALSE,0.95,0.006,4.143,0.426,649,0.97,FALSE,5,"Flowers-Insects IAT","congruent","ratings first"
258125975,TRUE,"male",21,18,4.17,625,0.89,FALSE,0.974,0.051,3.582,-0.158,599,0.96,FALSE,7,"Flowers-Insects IAT","congruent","SCIAT first"
259778364,TRUE,"male",20,14,3.83,816,0.94,FALSE,0.974,0.028,3.852,-0.012,620,0.97,FALSE,4,"Race IAT","incongruent","SCIAT first"
260314619,FALSE,NA,NA,NA,NA,NA,NA,NA,NA,NA,NA,NA,NA,NA,TRUE,3,"Race IAT","congruent","SCIAT first"
260570330,TRUE,"female",30,19,5,753,0.92,FALSE,0.971,0.2,2.744,-0.53,610,0.89,FALSE,2,"Race IAT","incongruent","ratings first"
263450431,TRUE,"male",18,22,3,608,0.93,FALSE,0.842,0.025,2.963,0.478,620,0.91,FALSE,7,"Flowers-Insects IAT","congruent","SCIAT first"
265685730,TRUE,"male",41,21,4,869,0.96,FALSE,0.974,0.025,3.909,0.005,622,0.97,FALSE,2,"Race IAT","incongruent","ratings first"
270308740,TRUE,"male",29,14,4.17,827,0.88,FALSE,0.821,0.075,2.357,0.261,562,0.87,FALSE,4,"Race IAT","incongruent","SCIAT first"
270327266,TRUE,"female",21,18,4.5,670,0.98,FALSE,0.875,0.025,3.11,0.405,616,0.92,FALSE,2,"Race IAT","incongruent","ratings first"
274582324,TRUE,"female",34,15,4.5,768,0.98,FALSE,0.949,0.051,3.265,0,607,0.95,FALSE,4,"Race IAT","incongruent","SCIAT first"
281711400,TRUE,"male",26,19,4,847,0.98,FALSE,0.949,0.054,3.239,-0.013,649,0.95,FALSE,8,"Flowers-Insects IAT","incongruent","SCIAT first"
287391307,TRUE,"non-binary",24,11,5.17,1003,0.93,FALSE,0.994,0.051,4.13,-0.433,614,0.97,FALSE,3,"Race IAT","congruent","SCIAT first"
291388118,TRUE,"male",22,14,4.83,903,0.86,FALSE,0.912,0.152,2.382,-0.161,692,0.88,FALSE,6,"Flowers-Insects IAT","incongruent","ratings first"
294127425,TRUE,"male",40,18,4,1081,0.93,FALSE,0.85,0.382,1.336,-0.369,543,0.74,FALSE,1,"Race IAT","congruent","ratings first"
295372062,TRUE,"male",27,17,4,606,0.98,FALSE,0.949,0.051,3.265,0,623,0.95,FALSE,6,"Flowers-Insects IAT","incongruent","ratings first"
301560772,TRUE,"male",26,16,5,848,0.9,FALSE,0.833,0.147,2.017,0.041,648,0.84,FALSE,4,"Race IAT","incongruent","SCIAT first"
305219912,TRUE,"male",54,26,3,869,0.98,FALSE,0.895,0.079,2.664,0.08,682,0.91,FALSE,8,"Flowers-Insects IAT","incongruent","SCIAT first"
317841342,FALSE,NA,NA,NA,NA,NA,NA,NA,NA,NA,NA,NA,NA,NA,TRUE,6,"Flowers-Insects IAT","incongruent","ratings first"
319349222,TRUE,"male",19,19,4.83,744,0.96,FALSE,0.75,0.1,1.956,0.304,561,0.82,FALSE,6,"Flowers-Insects IAT","incongruent","ratings first"
325320975,TRUE,"male",45,17,5,983,0.97,FALSE,0.889,0.006,3.718,0.639,662,0.95,FALSE,7,"Flowers-Insects IAT","congruent","SCIAT first"
332786361,TRUE,"female",51,19,4.83,1034,0.82,FALSE,0.576,0.257,0.843,0.231,617,0.66,FALSE,1,"Race IAT","congruent","ratings first"
333536239,FALSE,NA,NA,NA,NA,NA,NA,NA,NA,NA,NA,NA,NA,NA,TRUE,7,"Flowers-Insects IAT","congruent","SCIAT first"
334748437,TRUE,"male",27,13,4.5,701,0.87,FALSE,0.95,0.025,3.605,0.158,564,0.96,FALSE,5,"Flowers-Insects IAT","congruent","ratings first"
337995878,TRUE,"female ",28,15,3.67,770,0.92,FALSE,0.872,0.103,2.402,0.066,629,0.88,FALSE,6,"Flowers-Insects IAT","incongruent","ratings first"
339116986,TRUE,"male",21,25,7,860,0.88,FALSE,0.667,0.107,1.673,0.406,683,0.77,FALSE,2,"Race IAT","incongruent","ratings first"
341249261,TRUE,"male",21,21,3.5,917,0.85,FALSE,0.895,0.176,2.181,-0.162,640,0.86,FALSE,5,"Flowers-Insects IAT","congruent","ratings first"
344119961,FALSE,NA,NA,NA,NA,NA,NA,NA,NA,NA,NA,NA,NA,NA,TRUE,1,"Race IAT","congruent","ratings first"
348708304,TRUE,"female",33,12,4.67,665,0.91,FALSE,0.9,0.006,3.779,0.608,650,0.95,FALSE,8,"Flowers-Insects IAT","incongruent","SCIAT first"
349640595,FALSE,NA,NA,NA,NA,NA,NA,NA,NA,NA,NA,NA,NA,NA,TRUE,3,"Race IAT","congruent","SCIAT first"
353484657,TRUE,"female",26,20,4,782,0.82,FALSE,0.541,0.222,0.867,0.331,586,0.66,FALSE,1,"Race IAT","congruent","ratings first"
354050540,TRUE,"female",41,25,6,1296,0.96,FALSE,0.947,0.135,2.722,-0.259,650,0.91,FALSE,4,"Race IAT","incongruent","SCIAT first"
363223603,TRUE,"female",25,13,6.17,800,0.97,FALSE,0.95,0.125,2.795,-0.247,592,0.91,FALSE,3,"Race IAT","congruent","SCIAT first"
363524221,TRUE,"female",62,16,6,944,0.95,FALSE,0.853,0.161,2.038,-0.03,668,0.85,FALSE,5,"Flowers-Insects IAT","congruent","ratings first"
365107000,TRUE,"male",27,22,4.67,759,0.92,FALSE,0.966,0.069,3.302,-0.168,592,0.95,FALSE,8,"Flowers-Insects IAT","incongruent","SCIAT first"
365496626,TRUE,"female",26,15,4,851,0.91,FALSE,0.949,0.053,3.252,-0.006,597,0.95,FALSE,2,"Race IAT","incongruent","ratings first"
366442872,TRUE,"female",33,11,5.5,734,0.96,FALSE,0.974,0.051,3.582,-0.158,629,0.96,FALSE,8,"Flowers-Insects IAT","incongruent","SCIAT first"
375081299,TRUE,"female",61,21,3.5,951,0.98,FALSE,0.763,0.432,0.887,-0.273,529,0.67,FALSE,3,"Race IAT","congruent","SCIAT first"
384221432,TRUE,"male",30,18,4,1207,0.96,FALSE,0.917,0.212,2.182,-0.292,647,0.86,FALSE,8,"Flowers-Insects IAT","incongruent","SCIAT first"
384363251,TRUE,"female",46,14,4,906,1,FALSE,0.946,0.028,3.521,0.154,631,0.96,FALSE,3,"Race IAT","congruent","SCIAT first"
386246848,TRUE,"male",32,14,4.5,1009,0.94,FALSE,0.75,0.179,1.592,0.121,585,0.78,FALSE,8,"Flowers-Insects IAT","incongruent","SCIAT first"
387423690,TRUE,"female",56,14,4,816,0.98,FALSE,0.833,0.162,1.953,0.009,661,0.84,FALSE,2,"Race IAT","incongruent","ratings first"
395363312,FALSE,NA,NA,NA,NA,NA,NA,NA,NA,NA,NA,NA,NA,NA,TRUE,8,"Flowers-Insects IAT","incongruent","SCIAT first"
396485092,TRUE,"female",35,14,5.5,747,1,FALSE,0.895,0.081,2.65,0.073,660,0.91,FALSE,4,"Race IAT","incongruent","SCIAT first"
398489489,TRUE,"female",32,15,4,801,0.98,FALSE,0.865,0.028,3.017,0.406,673,0.92,FALSE,1,"Race IAT","congruent","ratings first"
402124967,TRUE,"male",40,17,4,754,0.98,FALSE,0.923,0.125,2.576,-0.138,567,0.9,FALSE,7,"Flowers-Insects IAT","congruent","SCIAT first"
405880925,TRUE,"male",43,18,4,1174,0.99,FALSE,NA,NA,NA,NA,NA,NA,FALSE,5,"Flowers-Insects IAT","congruent","ratings first"
408203981,TRUE,"female",35,14,3.83,974,0.97,FALSE,0.923,0.211,2.231,-0.311,642,0.86,FALSE,5,"Flowers-Insects IAT","congruent","ratings first"
410213985,TRUE,"female",36,13,4.67,731,0.86,FALSE,0.833,0.184,1.867,-0.034,636,0.82,FALSE,1,"Race IAT","congruent","ratings first"
423007866,TRUE,"female",34,11,5,771,0.91,FALSE,0.923,0.083,2.809,-0.022,627,0.92,FALSE,2,"Race IAT","incongruent","ratings first"
431925768,TRUE,"male",28,19,4,974,0.98,FALSE,0.971,0.028,3.817,0.006,624,0.97,FALSE,8,"Flowers-Insects IAT","incongruent","SCIAT first"
432053156,TRUE,"male",49,20,4.83,865,0.96,FALSE,0.946,0.056,3.2,-0.007,634,0.95,FALSE,4,"Race IAT","incongruent","SCIAT first"
438898549,TRUE,"male",39,27,4,937,0.99,FALSE,0.994,0.025,4.458,-0.269,666,0.99,FALSE,5,"Flowers-Insects IAT","congruent","ratings first"
443788413,FALSE,NA,NA,NA,NA,NA,NA,NA,NA,NA,NA,NA,NA,NA,TRUE,5,"Flowers-Insects IAT","congruent","ratings first"
445085567,TRUE,"female",23,14,4,659,0.92,FALSE,0.949,0.026,3.57,0.153,603,0.96,FALSE,7,"Flowers-Insects IAT","congruent","SCIAT first"
445192198,FALSE,NA,NA,NA,NA,NA,NA,NA,NA,NA,NA,NA,NA,NA,TRUE,6,"Flowers-Insects IAT","incongruent","ratings first"
445394746,TRUE,"female",21,16,3.83,1217,0.93,FALSE,0.84,0.13,2.119,0.065,678,0.85,FALSE,2,"Race IAT","incongruent","ratings first"
445794281,TRUE,"male",38,21,3,1266,0.97,FALSE,0.879,0.152,2.199,-0.069,643,0.86,FALSE,1,"Race IAT","congruent","ratings first"
451169438,TRUE,"male",23,15,4.5,573,0.86,FALSE,0.9,0.077,2.708,0.072,542,0.91,FALSE,6,"Flowers-Insects IAT","incongruent","ratings first"
452792693,TRUE,"female",60,21,4.5,1054,0.92,FALSE,0.857,0.281,1.647,-0.244,616,0.79,FALSE,5,"Flowers-Insects IAT","congruent","ratings first"
456132718,FALSE,NA,NA,NA,NA,NA,NA,NA,NA,NA,NA,NA,NA,NA,TRUE,6,"Flowers-Insects IAT","incongruent","ratings first"
461598033,TRUE,"female",54,15,7,916,0.98,FALSE,0.816,0.162,1.885,0.043,572,0.83,FALSE,1,"Race IAT","congruent","ratings first"
466244185,TRUE,"female",30,19,5,1159,0.98,FALSE,0.946,0.077,3.033,-0.09,663,0.93,FALSE,1,"Race IAT","congruent","ratings first"
467903513,TRUE,"female",29,17,4,709,0.97,FALSE,0.917,0.029,3.285,0.26,626,0.94,FALSE,1,"Race IAT","congruent","ratings first"
468462502,TRUE,"female",32,22,4,586,0.91,FALSE,0.946,0.053,3.227,0.007,610,0.95,FALSE,6,"Flowers-Insects IAT","incongruent","ratings first"
470431742,TRUE,"male",53,22,4,825,0.95,FALSE,0.923,0.132,2.545,-0.154,630,0.9,FALSE,6,"Flowers-Insects IAT","incongruent","ratings first"
471007684,TRUE,"female",31,15,4,771,0.98,FALSE,0.923,0.053,3.046,0.097,659,0.94,FALSE,4,"Race IAT","incongruent","SCIAT first"
472641427,TRUE,"male",40,29,5.67,1632,0.82,FALSE,0.324,0.389,-0.173,0.369,114,0.47,FALSE,3,"Race IAT","congruent","SCIAT first"
479384312,TRUE,"female",19,19,3.83,808,0.91,FALSE,0.861,0.162,2.071,-0.05,626,0.85,FALSE,8,"Flowers-Insects IAT","incongruent","SCIAT first"
480358378,TRUE,"female",51,14,6,820,0.98,FALSE,0.875,0.111,2.371,0.035,649,0.88,FALSE,2,"Race IAT","incongruent","ratings first"
485218603,TRUE,"male",36,20,6,1226,0.91,FALSE,0.897,0.054,2.874,0.17,632,0.92,FALSE,3,"Race IAT","congruent","SCIAT first"
486506647,TRUE,"female",32,15,4.67,872,0.96,FALSE,0.974,0.205,2.761,-0.557,587,0.88,FALSE,7,"Flowers-Insects IAT","congruent","SCIAT first"
502899565,FALSE,NA,NA,NA,NA,NA,NA,NA,NA,NA,NA,NA,NA,NA,TRUE,5,"Flowers-Insects IAT","congruent","ratings first"
514888056,TRUE,"female",21,19,4,727,0.9,FALSE,0.842,0.108,2.24,0.117,634,0.87,FALSE,8,"Flowers-Insects IAT","incongruent","SCIAT first"
515521577,TRUE,"female",24,15,3.83,872,0.98,FALSE,0.675,0.1,1.735,0.414,530,0.79,FALSE,1,"Race IAT","congruent","ratings first"
517726855,TRUE,"male",26,23,4.5,757,0.9,FALSE,0.857,0.2,1.909,-0.113,646,0.83,FALSE,7,"Flowers-Insects IAT","congruent","SCIAT first"
519817233,TRUE,"male",37,13,4,602,0.96,FALSE,0.95,0.051,3.277,-0.006,572,0.95,FALSE,1,"Race IAT","congruent","ratings first"
521731217,TRUE,"male",29,18,5,1280,1,FALSE,0.974,0.006,4.447,0.274,642,0.99,FALSE,1,"Race IAT","congruent","ratings first"
525408622,TRUE,"male",48,16,4,841,0.96,FALSE,0.974,0.029,3.827,-0.024,657,0.97,FALSE,6,"Flowers-Insects IAT","incongruent","ratings first"
535315539,TRUE,"female",54,13,4.33,773,0.92,FALSE,0.875,0.243,1.846,-0.227,671,0.82,FALSE,3,"Race IAT","congruent","SCIAT first"
539055050,FALSE,NA,NA,NA,NA,NA,NA,NA,NA,NA,NA,NA,NA,NA,TRUE,2,"Race IAT","incongruent","ratings first"
539375907,TRUE,"male",24,24,4.17,534,0.83,FALSE,0.975,0.079,3.372,-0.274,603,0.95,FALSE,3,"Race IAT","congruent","SCIAT first"
540105130,TRUE,"male",23,21,3.83,812,0.95,FALSE,0.974,0.006,4.447,0.274,633,0.99,FALSE,2,"Race IAT","incongruent","ratings first"
542218727,TRUE,"female",54,15,3.33,908,1,FALSE,0.895,0.133,2.363,-0.071,632,0.88,FALSE,7,"Flowers-Insects IAT","congruent","SCIAT first"
544130035,FALSE,NA,NA,NA,NA,NA,NA,NA,NA,NA,NA,NA,NA,NA,TRUE,3,"Race IAT","congruent","SCIAT first"
549996272,TRUE,"female ",47,19,4,757,0.87,FALSE,0.737,0.176,1.563,0.148,664,0.78,FALSE,8,"Flowers-Insects IAT","incongruent","SCIAT first"
550467416,TRUE,"female",47,14,5,985,0.94,FALSE,0.795,0.135,1.926,0.139,635,0.83,FALSE,8,"Flowers-Insects IAT","incongruent","SCIAT first"
560194454,FALSE,NA,NA,NA,NA,NA,NA,NA,NA,NA,NA,NA,NA,NA,TRUE,6,"Flowers-Insects IAT","incongruent","ratings first"
561545994,TRUE,"male",35,15,4.33,812,0.92,FALSE,0.969,0.043,3.574,-0.076,746,0.96,FALSE,2,"Race IAT","incongruent","ratings first"
561714654,TRUE,"female",59,14,4.17,1139,0.96,FALSE,0.892,0.206,2.057,-0.208,637,0.85,FALSE,6,"Flowers-Insects IAT","incongruent","ratings first"
563072740,TRUE,"female",33,20,4,939,0.98,FALSE,0.872,0.026,3.084,0.407,642,0.92,FALSE,4,"Race IAT","incongruent","SCIAT first"
563438230,TRUE,"female",30,22,4,618,0.87,FALSE,0.872,0.025,3.095,0.413,580,0.92,FALSE,6,"Flowers-Insects IAT","incongruent","ratings first"
563591600,TRUE,"female",33,16,4,776,0.86,FALSE,0.994,0.051,4.13,-0.433,626,0.97,FALSE,8,"Flowers-Insects IAT","incongruent","SCIAT first"
569594414,TRUE,"female",39,11,5.17,946,0.94,FALSE,0.973,0.026,3.864,0.006,640,0.97,FALSE,6,"Flowers-Insects IAT","incongruent","ratings first"
573871758,TRUE,"female",45,17,4,641,0.98,FALSE,0.9,0.135,2.384,-0.09,616,0.88,FALSE,6,"Flowers-Insects IAT","incongruent","ratings first"
575082229,TRUE,"female",42,15,5.5,716,0.93,FALSE,0.441,0.206,0.673,0.484,716,0.62,FALSE,5,"Flowers-Insects IAT","congruent","ratings first"
582207697,TRUE,"female",30,15,5.5,770,0.94,FALSE,0.872,0.026,3.084,0.407,628,0.92,FALSE,1,"Race IAT","congruent","ratings first"
583883014,TRUE,"male",32,28,4,917,0.99,FALSE,0.974,0.028,3.864,-0.017,643,0.97,FALSE,6,"Flowers-Insects IAT","incongruent","ratings first"
584437081,TRUE,"male",34,21,4,907,0.88,FALSE,0.919,0.029,3.3,0.252,699,0.94,FALSE,1,"Race IAT","congruent","ratings first"
586836790,FALSE,NA,NA,NA,NA,NA,NA,NA,NA,NA,NA,NA,NA,NA,TRUE,6,"Flowers-Insects IAT","incongruent","ratings first"
587872212,FALSE,NA,NA,NA,NA,NA,NA,NA,NA,NA,NA,NA,NA,NA,TRUE,4,"Race IAT","incongruent","SCIAT first"
593643129,TRUE,"female",51,13,4.67,843,1,FALSE,0.824,0.179,1.85,-0.004,632,0.82,FALSE,1,"Race IAT","congruent","ratings first"
599385267,TRUE,"male",20,15,5.33,1229,0.92,FALSE,0.906,0.08,2.723,0.044,743,0.91,FALSE,3,"Race IAT","congruent","SCIAT first"
599651811,TRUE,"female",39,18,4,749,0.9,FALSE,0.895,0.421,1.451,-0.526,555,0.74,FALSE,3,"Race IAT","congruent","SCIAT first"
605606673,TRUE,"female",27,18,4.33,925,0.94,FALSE,0.949,0.026,3.582,0.158,665,0.96,FALSE,1,"Race IAT","congruent","ratings first"
605886233,TRUE,"female",55,15,4.17,766,0.94,FALSE,0.975,0.027,3.886,-0.017,654,0.97,FALSE,1,"Race IAT","congruent","ratings first"
609200910,TRUE,"male",21,18,3.83,896,0.98,FALSE,0.974,0.027,3.876,-0.011,638,0.97,FALSE,6,"Flowers-Insects IAT","incongruent","ratings first"
610168744,TRUE,"male",28,17,5,717,1,FALSE,0.95,0.075,3.084,-0.103,582,0.94,FALSE,8,"Flowers-Insects IAT","incongruent","SCIAT first"
613796132,TRUE,"female",31,19,4,1555,0.82,FALSE,0.862,0.577,0.896,-0.642,636,0.65,FALSE,4,"Race IAT","incongruent","SCIAT first"
614502488,TRUE,"female",42,20,4,995,0.86,FALSE,0.8,0.189,1.723,0.02,621,0.81,FALSE,8,"Flowers-Insects IAT","incongruent","SCIAT first"
619115057,TRUE,"female",26,16,5.33,938,0.93,FALSE,0.875,0.077,2.576,0.138,625,0.9,FALSE,1,"Race IAT","congruent","ratings first"
620965256,TRUE,"male",44,15,4.33,776,0.97,FALSE,0.974,0.053,3.569,-0.165,657,0.96,FALSE,8,"Flowers-Insects IAT","incongruent","SCIAT first"
622726613,FALSE,NA,NA,NA,NA,NA,NA,NA,NA,NA,NA,NA,NA,NA,TRUE,5,"Flowers-Insects IAT","congruent","ratings first"
632173056,TRUE,"female",19,11,4.33,909,0.92,FALSE,0.684,0.075,1.919,0.48,539,0.81,FALSE,8,"Flowers-Insects IAT","incongruent","SCIAT first"
641206241,TRUE,"female",24,15,4.17,668,0.93,FALSE,0.949,0.256,2.287,-0.489,586,0.85,FALSE,1,"Race IAT","congruent","ratings first"
641734445,TRUE,"female",20,28,7,404,0.49,TRUE,0.919,0.083,2.781,-0.007,631,0.92,TRUE,5,"Flowers-Insects IAT","congruent","ratings first"
644775899,TRUE,"female",39,19,4,776,0.89,FALSE,0.923,0.243,2.122,-0.365,576,0.84,FALSE,3,"Race IAT","congruent","SCIAT first"
647554123,TRUE,"female",37,16,6.17,1101,0.97,FALSE,0.974,0.081,3.347,-0.276,656,0.95,FALSE,3,"Race IAT","congruent","SCIAT first"
649334898,TRUE,"male",48,13,4,1634,0.96,FALSE,0.921,0.139,2.498,-0.163,634,0.89,FALSE,2,"Race IAT","incongruent","ratings first"
654331958,TRUE,"female",35,24,3.67,730,0.84,FALSE,0.778,0.231,1.501,-0.014,633,0.77,FALSE,6,"Flowers-Insects IAT","incongruent","ratings first"
657593060,TRUE,"male",40,15,6,926,0.9,FALSE,0.974,0.051,3.57,-0.153,600,0.96,FALSE,4,"Race IAT","incongruent","SCIAT first"
657636043,TRUE,"female",31,13,5,926,0.97,FALSE,0.868,0.029,3.021,0.392,639,0.92,FALSE,3,"Race IAT","congruent","SCIAT first"
664316323,TRUE,"female",32,18,4,826,0.93,FALSE,0.75,0.25,1.349,0,563,0.75,FALSE,3,"Race IAT","congruent","SCIAT first"
666581979,TRUE,"female",25,22,4,701,0.94,FALSE,0.923,0.05,3.071,0.109,622,0.94,FALSE,3,"Race IAT","congruent","SCIAT first"
667960884,TRUE,"male",34,15,4.83,1069,0.98,FALSE,0.882,0.056,2.78,0.203,704,0.91,FALSE,4,"Race IAT","incongruent","SCIAT first"
672756570,FALSE,NA,NA,NA,NA,NA,NA,NA,NA,NA,NA,NA,NA,NA,TRUE,2,"Race IAT","incongruent","ratings first"
675058712,TRUE,"female",54,15,4.17,1323,0.92,FALSE,0.821,0.2,1.759,-0.038,612,0.81,FALSE,8,"Flowers-Insects IAT","incongruent","SCIAT first"
677718263,TRUE,"male",52,13,4,758,0.9,FALSE,0.718,0.179,1.494,0.17,614,0.77,FALSE,7,"Flowers-Insects IAT","congruent","SCIAT first"
678393096,TRUE,"female",32,15,4.17,572,0.85,FALSE,0.846,0.051,2.653,0.306,559,0.9,FALSE,8,"Flowers-Insects IAT","incongruent","SCIAT first"
681508303,TRUE,"male",30,24,4.33,710,0.97,FALSE,0.994,0.006,4.995,0,644,1,FALSE,7,"Flowers-Insects IAT","congruent","SCIAT first"
682937112,TRUE,"female",30,15,4.5,923,0.77,FALSE,0.632,0.615,0.043,-0.315,455,0.51,FALSE,8,"Flowers-Insects IAT","incongruent","SCIAT first"
683057198,TRUE,"female",38,13,4,1263,0.97,FALSE,0.795,0.387,1.11,-0.268,659,0.71,FALSE,6,"Flowers-Insects IAT","incongruent","ratings first"
685597056,FALSE,NA,NA,NA,NA,NA,NA,NA,NA,NA,NA,NA,NA,NA,TRUE,8,"Flowers-Insects IAT","incongruent","SCIAT first"
688207919,TRUE,"female",53,12,4.83,927,0.96,FALSE,0.844,0.103,2.272,0.126,697,0.87,FALSE,7,"Flowers-Insects IAT","congruent","SCIAT first"
693171305,TRUE,"female",26,17,4,720,0.97,FALSE,0.925,0.158,2.443,-0.218,579,0.88,FALSE,1,"Race IAT","congruent","ratings first"
693366393,TRUE,"female",30,15,3.83,142,0.48,TRUE,0.739,0.591,0.411,-0.435,193,0.58,TRUE,1,"Race IAT","congruent","ratings first"
700011012,TRUE,"male",53,19,5,1059,0.95,FALSE,0.875,0.056,2.744,0.221,619,0.91,FALSE,4,"Race IAT","incongruent","SCIAT first"
700864735,FALSE,NA,NA,NA,NA,NA,NA,NA,NA,NA,NA,NA,NA,NA,TRUE,7,"Flowers-Insects IAT","congruent","SCIAT first"
703624742,TRUE,"female",33,10,6,868,0.99,FALSE,0.921,0.028,3.327,0.251,641,0.95,FALSE,6,"Flowers-Insects IAT","incongruent","ratings first"
713895250,FALSE,NA,NA,NA,NA,NA,NA,NA,NA,NA,NA,NA,NA,NA,TRUE,2,"Race IAT","incongruent","ratings first"
713936658,TRUE,"female",65,17,4,1769,0.98,FALSE,0.778,0.381,1.068,-0.231,677,0.71,FALSE,2,"Race IAT","incongruent","ratings first"
715537611,FALSE,NA,NA,NA,NA,NA,NA,NA,NA,NA,NA,NA,NA,NA,TRUE,3,"Race IAT","congruent","SCIAT first"
716428497,FALSE,NA,NA,NA,NA,NA,NA,NA,NA,NA,NA,NA,NA,NA,TRUE,1,"Race IAT","congruent","ratings first"
717194360,TRUE,"female",50,22,3.33,946,0.89,FALSE,0.69,0.63,0.164,-0.413,599,0.54,FALSE,8,"Flowers-Insects IAT","incongruent","SCIAT first"
721300289,TRUE,"male",19,22,4.5,852,0.88,FALSE,0.994,0.027,4.424,-0.286,660,0.99,FALSE,1,"Race IAT","congruent","ratings first"
726661040,TRUE,"female",50,17,4.67,1180,0.99,FALSE,0.947,0.128,2.755,-0.242,648,0.91,FALSE,8,"Flowers-Insects IAT","incongruent","SCIAT first"
728685931,TRUE,"male",47,19,4.67,900,0.99,FALSE,0.947,0.026,3.569,0.165,659,0.96,FALSE,3,"Race IAT","congruent","SCIAT first"
730072246,TRUE,"male",21,20,2.83,536,0.74,TRUE,0.788,0.231,1.535,-0.031,673,0.78,TRUE,6,"Flowers-Insects IAT","incongruent","ratings first"
732621860,TRUE,"female",30,15,4,1073,0.92,FALSE,0.897,0.114,2.471,-0.032,653,0.89,FALSE,4,"Race IAT","incongruent","SCIAT first"
738315478,TRUE,"female",35,12,4,1009,0.96,FALSE,0.895,0.053,2.872,0.184,647,0.92,FALSE,6,"Flowers-Insects IAT","incongruent","ratings first"
739994208,TRUE,"female",28,16,4.17,905,0.98,FALSE,0.923,0.051,3.059,0.103,568,0.94,FALSE,8,"Flowers-Insects IAT","incongruent","SCIAT first"
742227168,TRUE,"male",21,21,4,758,0.96,FALSE,0.872,0.025,3.095,0.413,579,0.92,FALSE,8,"Flowers-Insects IAT","incongruent","SCIAT first"
747800991,TRUE,"female",39,14,5,932,0.95,FALSE,0.925,0.105,2.692,-0.094,591,0.91,FALSE,7,"Flowers-Insects IAT","congruent","SCIAT first"
747839560,TRUE,"male",30,16,4,937,0.95,FALSE,0.925,0.026,3.377,0.249,637,0.95,FALSE,8,"Flowers-Insects IAT","incongruent","SCIAT first"
748063977,TRUE,"female",48,19,5,680,0.95,FALSE,0.949,0.054,3.239,-0.013,631,0.95,FALSE,1,"Race IAT","congruent","ratings first"
749368071,TRUE,"female",41,17,4,941,0.96,FALSE,0.9,0.006,3.779,0.608,642,0.95,FALSE,7,"Flowers-Insects IAT","congruent","SCIAT first"
755258994,TRUE,"female",28,16,4.5,825,0.98,FALSE,0.949,0.006,4.13,0.433,670,0.97,FALSE,2,"Race IAT","incongruent","ratings first"
761338203,TRUE,"female",33,20,6,764,0.96,FALSE,0.825,0.128,2.07,0.1,634,0.85,FALSE,3,"Race IAT","congruent","SCIAT first"
770578037,TRUE,"female",31,13,4,940,0.93,FALSE,0.816,0.135,2.002,0.102,653,0.84,FALSE,5,"Flowers-Insects IAT","congruent","ratings first"
772374929,TRUE,"53",53,18,4,809,0.97,FALSE,0.973,0.121,3.095,-0.379,652,0.93,FALSE,1,"Race IAT","congruent","ratings first"
781128104,TRUE,"female",22,15,4.5,1003,0.86,FALSE,0.75,0.412,0.897,-0.226,628,0.67,FALSE,8,"Flowers-Insects IAT","incongruent","SCIAT first"
787704087,TRUE,"male",46,11,6.17,806,0.94,FALSE,0.949,0.158,2.636,-0.315,601,0.9,FALSE,7,"Flowers-Insects IAT","congruent","SCIAT first"
789953235,FALSE,NA,NA,NA,NA,NA,NA,NA,NA,NA,NA,NA,NA,NA,TRUE,3,"Race IAT","congruent","SCIAT first"
792204798,TRUE,"female",31,14,3.67,643,0.92,FALSE,0.895,0.075,2.692,0.094,634,0.91,FALSE,6,"Flowers-Insects IAT","incongruent","ratings first"
811663184,TRUE,"female",30,15,5.33,581,0.97,FALSE,0.949,0.053,3.252,-0.006,639,0.95,FALSE,8,"Flowers-Insects IAT","incongruent","SCIAT first"
817704898,TRUE,"female",50,15,4.83,791,0.98,FALSE,0.526,0.447,0.198,0.033,427,0.54,FALSE,2,"Race IAT","incongruent","ratings first"
819540299,TRUE,"male",35,13,7,1084,0.95,FALSE,0.816,0.286,1.465,-0.167,679,0.77,FALSE,3,"Race IAT","congruent","SCIAT first"
827785702,TRUE,"female",24,17,4,711,0.98,FALSE,0.975,0.006,4.458,0.269,631,0.99,FALSE,6,"Flowers-Insects IAT","incongruent","ratings first"
832682047,TRUE,"female",30,15,3,781,0.98,FALSE,0.784,0.205,1.608,0.019,592,0.79,FALSE,7,"Flowers-Insects IAT","congruent","SCIAT first"
833121121,TRUE,"female",28,18,4.67,756,0.98,FALSE,0.949,0.056,3.226,-0.02,631,0.95,FALSE,1,"Race IAT","congruent","ratings first"
837260989,TRUE,"female",31,22,4,662,0.93,FALSE,0.825,0.237,1.651,-0.109,545,0.79,FALSE,5,"Flowers-Insects IAT","congruent","ratings first"
842849993,TRUE,"female",47,16,4,1013,1,FALSE,0.875,0.333,1.581,-0.36,612,0.77,FALSE,1,"Race IAT","congruent","ratings first"
846149360,FALSE,NA,NA,NA,NA,NA,NA,NA,NA,NA,NA,NA,NA,NA,TRUE,8,"Flowers-Insects IAT","incongruent","SCIAT first"
847004382,FALSE,NA,NA,NA,NA,NA,NA,NA,NA,NA,NA,NA,NA,NA,TRUE,6,"Flowers-Insects IAT","incongruent","ratings first"
850004642,TRUE,"female",35,13,4.17,883,0.98,FALSE,0.974,0.081,3.336,-0.27,635,0.95,FALSE,2,"Race IAT","incongruent","ratings first"
852697087,TRUE,"male",35,13,4.17,706,0.94,FALSE,0.949,0.05,3.277,0.006,628,0.95,FALSE,7,"Flowers-Insects IAT","congruent","SCIAT first"
854086011,TRUE,"female",29,16,4.33,787,0.93,FALSE,0.795,0.088,2.175,0.264,665,0.85,FALSE,3,"Race IAT","congruent","SCIAT first"
855686521,TRUE,"female",31,18,4.17,886,0.91,FALSE,0.943,0.083,2.962,-0.098,696,0.93,FALSE,1,"Race IAT","congruent","ratings first"
857298266,TRUE,"male",39,18,4,938,0.93,FALSE,0.006,0.006,0,2.498,390,0.75,FALSE,2,"Race IAT","incongruent","ratings first"
862429627,TRUE,"male",61,20,4,1152,0.98,FALSE,0.8,0.053,2.461,0.389,656,0.87,FALSE,3,"Race IAT","congruent","SCIAT first"
862519812,TRUE,"female",20,16,4,772,0.93,FALSE,0.9,0.026,3.231,0.334,648,0.94,FALSE,4,"Race IAT","incongruent","SCIAT first"
862861193,TRUE,"female",50,11,4.83,777,0.96,FALSE,0.821,0.154,1.937,0.051,588,0.83,FALSE,1,"Race IAT","congruent","ratings first"
867948927,TRUE,"female",48,15,6,882,0.97,FALSE,0.974,0.057,3.517,-0.179,665,0.96,FALSE,7,"Flowers-Insects IAT","congruent","SCIAT first"
868001054,TRUE,"female",22,15,4.17,794,0.75,FALSE,0.923,0.026,3.375,0.262,635,0.95,FALSE,6,"Flowers-Insects IAT","incongruent","ratings first"
884258753,TRUE,"31",31,10,6,1197,0.85,FALSE,0.943,0.176,2.508,-0.325,712,0.88,FALSE,1,"Race IAT","congruent","ratings first"
887372462,FALSE,NA,NA,NA,NA,NA,NA,NA,NA,NA,NA,NA,NA,NA,TRUE,6,"Flowers-Insects IAT","incongruent","ratings first"
896106144,TRUE,"female",32,23,1,773,0.83,FALSE,0.9,0.128,2.416,-0.073,599,0.89,FALSE,8,"Flowers-Insects IAT","incongruent","SCIAT first"
896250499,TRUE,"female",42,18,4,926,0.98,FALSE,0.789,0.184,1.704,0.047,562,0.8,FALSE,3,"Race IAT","congruent","SCIAT first"
900241257,TRUE,"female",24,11,4,1000,0.96,FALSE,0.765,0.179,1.642,0.1,663,0.79,FALSE,1,"Race IAT","congruent","ratings first"
906784166,TRUE,"female",47,15,4,799,0.97,FALSE,0.744,0.054,2.261,0.476,662,0.84,FALSE,6,"Flowers-Insects IAT","incongruent","ratings first"
909556138,TRUE,"female",39,18,4.33,685,0.98,FALSE,0.975,0.026,3.909,-0.005,630,0.97,FALSE,2,"Race IAT","incongruent","ratings first"
915306710,TRUE,"female",29,15,4,916,1,FALSE,0.974,0.025,3.898,0.011,618,0.97,FALSE,6,"Flowers-Insects IAT","incongruent","ratings first"
920693717,FALSE,NA,NA,NA,NA,NA,NA,NA,NA,NA,NA,NA,NA,NA,TRUE,5,"Flowers-Insects IAT","congruent","ratings first"
935323645,TRUE,"female",NA,14,4.33,898,0.93,FALSE,0.649,0.364,0.73,-0.016,502,0.64,FALSE,5,"Flowers-Insects IAT","congruent","ratings first"
937860201,TRUE,"female",20,12,6,731,0.98,FALSE,0.925,0.103,2.707,-0.086,639,0.91,FALSE,1,"Race IAT","congruent","ratings first"
942206850,TRUE,"female",45,23,6,1621,0.88,FALSE,0.923,0.054,3.033,0.09,674,0.93,FALSE,2,"Race IAT","incongruent","ratings first"
942657512,TRUE,"female",22,17,3.67,756,0.87,FALSE,0.897,0.051,2.9,0.183,608,0.92,FALSE,8,"Flowers-Insects IAT","incongruent","SCIAT first"
942733821,TRUE,"male",23,19,3.5,261,0.53,TRUE,0.923,0.053,3.046,0.097,615,0.94,TRUE,5,"Flowers-Insects IAT","congruent","ratings first"
944683843,TRUE,"female",27,18,3.5,687,0.88,FALSE,0.975,0.051,3.593,-0.164,627,0.96,FALSE,3,"Race IAT","congruent","SCIAT first"
954456004,TRUE,"female",35,12,4,784,0.92,FALSE,0.714,0.152,1.596,0.232,627,0.78,FALSE,4,"Race IAT","incongruent","SCIAT first"
955145745,TRUE,"male",59,17,5.33,1054,0.99,FALSE,0.973,0.125,3.077,-0.388,659,0.93,FALSE,1,"Race IAT","congruent","ratings first"
956843913,TRUE,"female",58,17,5,966,0.98,FALSE,0.943,0.033,3.413,0.127,748,0.95,FALSE,1,"Race IAT","congruent","ratings first"
957598724,TRUE,"male",53,18,4.67,797,0.99,FALSE,0.974,0.006,4.436,0.28,670,0.99,FALSE,4,"Race IAT","incongruent","SCIAT first"
959977279,TRUE,"female",26,20,4,784,0.84,FALSE,0.897,0.051,2.9,0.183,593,0.92,FALSE,7,"Flowers-Insects IAT","congruent","SCIAT first"
962627857,TRUE,"female",40,21,5,821,0.98,FALSE,0.944,0.081,2.991,-0.098,621,0.93,FALSE,1,"Race IAT","congruent","ratings first"
962810244,TRUE,"female",38,17,4,1789,0.91,FALSE,0.917,0.027,3.309,0.272,671,0.95,FALSE,4,"Race IAT","incongruent","SCIAT first"
964433421,FALSE,NA,NA,NA,NA,NA,NA,NA,NA,NA,NA,NA,NA,NA,TRUE,5,"Flowers-Insects IAT","congruent","ratings first"
966998928,TRUE,"male",19,16,4,778,0.97,FALSE,0.949,0.077,3.059,-0.103,612,0.94,FALSE,8,"Flowers-Insects IAT","incongruent","SCIAT first"
971096856,TRUE,"female",43,12,4.17,819,0.95,FALSE,0.821,0.029,2.807,0.486,649,0.89,FALSE,8,"Flowers-Insects IAT","incongruent","SCIAT first"
982397589,TRUE,"male",50,23,4,818,0.99,FALSE,0.875,0.222,1.915,-0.193,630,0.83,FALSE,5,"Flowers-Insects IAT","congruent","ratings first"
983422513,TRUE,"male",30,21,4.67,950,0.92,FALSE,0.95,0.077,3.071,-0.109,628,0.94,FALSE,1,"Race IAT","congruent","ratings first"
983434691,TRUE,"female",32,17,4,805,0.97,FALSE,0.9,0.211,2.086,-0.238,562,0.85,FALSE,3,"Race IAT","congruent","SCIAT first"
986250624,TRUE,"male",53,19,3.33,861,0.98,FALSE,0.917,0.081,2.781,0.007,665,0.92,FALSE,8,"Flowers-Insects IAT","incongruent","SCIAT first"
986991006,TRUE,"male",54,19,4,1536,0.98,FALSE,0.846,0.079,2.432,0.196,642,0.88,FALSE,6,"Flowers-Insects IAT","incongruent","ratings first"
991310004,TRUE,"female",34,13,4,724,0.89,FALSE,0.921,0.077,2.838,0.007,627,0.92,FALSE,4,"Race IAT","incongruent","SCIAT first"
992967929,TRUE,"female",41,15,5,821,0.97,FALSE,0.825,0.184,1.834,-0.018,597,0.82,FALSE,1,"Race IAT","congruent","ratings first"
995011576,TRUE,"female",31,19,6,671,0.98,FALSE,0.925,0.025,3.399,0.26,587,0.95,FALSE,8,"Flowers-Insects IAT","incongruent","SCIAT first"
999273421,FALSE,NA,NA,NA,NA,NA,NA,NA,NA,NA,NA,NA,NA,NA,TRUE,5,"Flowers-Insects IAT","congruent","ratings first"
