"participant","condition","IAT_condition","block_order","task_order","gender","age","mean_rating","IAT_D1","IAT_mean_RT","IAT_perc_acc","IAT_exclude_based_on_fast_trials","percentage.Hit","percentage.FA","d","c","shooter_mean_RT","shooter_perc_acc","modern_racism_scale_total"
4497834,2,"Race IAT","incongruent","ratings first","female",20,4,0.382,744,0.95,FALSE,0.925,0.03,3.316,0.218,635,0.95,16
7205392,8,"Flowers-Insects IAT","incongruent","SCIAT first","male",34,3.33,0.643,720,0.98,FALSE,0.974,0.026,3.887,-0.006,638,0.97,15
14020169,1,"Race IAT","congruent","ratings first","female",44,4,0.717,861,0.98,FALSE,0.949,0.059,3.197,-0.034,657,0.95,22
22506001,1,"Race IAT","congruent","ratings first","male",24,4.67,0.473,916,0.92,FALSE,0.947,0.027,3.546,0.153,656,0.96,15
27087659,3,"Race IAT","congruent","SCIAT first","female",49,4.67,0.742,1206,0.98,FALSE,0.842,0.212,1.802,-0.102,682,0.82,18
27226757,5,"Flowers-Insects IAT","congruent","ratings first","female",25,6.17,0.34,1051,0.98,FALSE,0.806,0.1,2.143,0.21,702,0.85,14
28012583,7,"Flowers-Insects IAT","congruent","SCIAT first","female",33,6,0.558,763,0.87,FALSE,0.825,0.105,2.187,0.159,592,0.86,18
29137271,7,"Flowers-Insects IAT","congruent","SCIAT first","female",33,4,0.565,1237,0.97,FALSE,0.971,0.114,3.094,-0.343,704,0.93,15
34712061,5,"Flowers-Insects IAT","congruent","ratings first","female",50,4,0.79,985,1,FALSE,0.947,0.121,2.789,-0.225,679,0.92,19
38779001,1,"Race IAT","congruent","ratings first","female",38,4.83,0.605,687,0.97,FALSE,0.944,0.054,3.2,0.007,635,0.95,16
41400304,8,"Flowers-Insects IAT","incongruent","SCIAT first","male",21,6,0.579,681,0.9,FALSE,0.921,0.006,3.91,0.543,651,0.96,16
43912010,2,"Race IAT","incongruent","ratings first","male",24,4.67,0.494,892,0.88,FALSE,0.775,0.053,2.375,0.432,677,0.86,12
44646583,7,"Flowers-Insects IAT","congruent","SCIAT first","male",52,6.17,0.776,796,0.96,FALSE,0.949,0.162,2.618,-0.323,643,0.89,20
44915286,6,"Flowers-Insects IAT","incongruent","ratings first","male",43,2.33,1.037,827,0.99,FALSE,0.947,0.006,4.118,0.439,644,0.97,25
45824312,8,"Flowers-Insects IAT","incongruent","SCIAT first","female",37,5.83,0.399,753,0.97,FALSE,0.975,0.026,3.898,-0.011,637,0.97,12
45897747,3,"Race IAT","congruent","SCIAT first","female",29,4.67,0.408,857,0.97,FALSE,0.9,0.083,2.665,0.051,640,0.91,17
57250160,8,"Flowers-Insects IAT","incongruent","SCIAT first","male",36,4.5,1.361,798,0.98,FALSE,0.95,0.026,3.594,0.152,577,0.96,15
61784683,3,"Race IAT","congruent","SCIAT first","female",47,7,0.554,1739,0.99,FALSE,0.919,0.079,2.81,0.007,689,0.92,16
62983505,1,"Race IAT","congruent","ratings first","female",63,3.33,0.131,1677,0.99,FALSE,0.895,0.189,2.133,-0.186,606,0.85,17
64634778,2,"Race IAT","incongruent","ratings first","female",25,4,-0.05,1019,0.98,FALSE,0.973,0.062,3.461,-0.196,705,0.96,11
65123836,4,"Race IAT","incongruent","SCIAT first","male",25,4.5,0.579,610,0.89,FALSE,0.9,0.051,2.914,0.175,581,0.92,15
68906880,8,"Flowers-Insects IAT","incongruent","SCIAT first","male",47,4.67,1.026,922,0.95,FALSE,0.882,0.028,3.101,0.364,667,0.93,15
71675015,7,"Flowers-Insects IAT","congruent","SCIAT first","female",64,3.5,0.054,1519,1,FALSE,0.806,0.24,1.571,-0.079,641,0.79,16
72170145,1,"Race IAT","congruent","ratings first","male",27,4,0.984,913,0.98,FALSE,0.994,0.028,4.412,-0.292,670,0.99,18
76771109,5,"Flowers-Insects IAT","congruent","ratings first","male",22,4,0.926,764,0.92,FALSE,0.474,0.077,1.36,0.746,589,0.7,14
76994235,3,"Race IAT","congruent","SCIAT first","female",52,6.17,0.279,911,0.96,FALSE,0.711,0.368,0.891,-0.109,572,0.67,15
77526532,4,"Race IAT","incongruent","SCIAT first","female",40,4,0.351,935,1,FALSE,0.943,0.135,2.682,-0.238,634,0.9,20
89350505,1,"Race IAT","congruent","ratings first","male",64,5.5,0.212,942,0.94,FALSE,0.972,0.061,3.464,-0.182,657,0.96,10
91409689,1,"Race IAT","congruent","ratings first","male",20,4.5,0.539,813,0.98,FALSE,0.947,0.051,3.252,0.006,612,0.95,16
91445973,5,"Flowers-Insects IAT","congruent","ratings first","female",28,4,-0.088,785,0.98,FALSE,0.994,0.083,3.881,-0.557,653,0.96,13
92276310,6,"Flowers-Insects IAT","incongruent","ratings first","male",29,6.17,0.339,828,0.88,FALSE,0.925,0.083,2.823,-0.028,613,0.92,28
102983176,8,"Flowers-Insects IAT","incongruent","SCIAT first","female",62,3.83,1.026,813,0.97,FALSE,0.737,0.162,1.619,0.176,620,0.79,19
105966407,7,"Flowers-Insects IAT","congruent","SCIAT first","male",22,3.17,1.147,801,0.96,FALSE,0.825,0.205,1.758,-0.056,543,0.81,12
106054635,3,"Race IAT","congruent","SCIAT first","female ",38,4.33,0.026,943,0.98,FALSE,0.763,0.229,1.46,0.014,568,0.77,13
106620885,5,"Flowers-Insects IAT","congruent","ratings first","female",29,5.83,0.694,608,0.95,FALSE,0.946,0.103,2.874,-0.17,637,0.92,14
116822016,8,"Flowers-Insects IAT","incongruent","SCIAT first","female",31,4,0.7,1033,0.98,FALSE,0.95,0.053,3.265,-0.012,642,0.95,23
126336192,8,"Flowers-Insects IAT","incongruent","SCIAT first","female",44,4,0.544,982,0.94,FALSE,0.872,0.083,2.518,0.124,647,0.89,15
129848145,1,"Race IAT","congruent","ratings first","female",27,3.17,0.714,874,0.86,FALSE,0.821,0.176,1.846,0.006,640,0.82,20
131557731,3,"Race IAT","congruent","SCIAT first","female",48,6,0.065,939,0.97,FALSE,0.897,0.184,2.167,-0.184,577,0.86,15
131774082,2,"Race IAT","incongruent","ratings first","male",50,3.17,0.509,867,0.98,FALSE,0.921,0.057,2.991,0.084,653,0.93,18
143128871,7,"Flowers-Insects IAT","congruent","SCIAT first","male",30,4,0.899,911,0.93,FALSE,0.973,0.053,3.546,-0.153,661,0.96,19
145596673,1,"Race IAT","congruent","ratings first","female",24,4,0.731,936,0.92,FALSE,0.825,0.147,1.984,0.057,590,0.84,23
147347378,2,"Race IAT","incongruent","ratings first","female",52,7,-0.641,1282,0.97,FALSE,0.848,0.088,2.382,0.161,708,0.88,14
147475444,4,"Race IAT","incongruent","SCIAT first","male",28,4,0.9,945,0.93,FALSE,0.897,0.006,3.765,0.615,651,0.95,13
148231489,1,"Race IAT","congruent","ratings first","female",28,7,0.453,697,0.94,FALSE,0.925,0.079,2.852,-0.014,565,0.92,20
150461530,2,"Race IAT","incongruent","ratings first","male",33,6,0.462,890,0.97,FALSE,0.972,0.031,3.777,-0.026,635,0.97,22
169236538,2,"Race IAT","incongruent","ratings first","male",37,4,-0.004,848,0.98,FALSE,0.947,0.028,3.534,0.147,658,0.96,11
172722031,7,"Flowers-Insects IAT","congruent","SCIAT first","female",46,5.17,0.841,684,0.82,FALSE,0.744,0.179,1.572,0.131,579,0.78,21
174790887,7,"Flowers-Insects IAT","congruent","SCIAT first","male",34,4,0.58,786,0.91,FALSE,0.949,0.006,4.13,0.433,630,0.97,20
176652930,2,"Race IAT","incongruent","ratings first","female ",45,4,1.03,941,0.94,FALSE,0.946,0.026,3.545,0.166,645,0.96,19
182940083,3,"Race IAT","congruent","SCIAT first","female",49,3.83,0.428,843,0.98,FALSE,0.917,0.006,3.881,0.557,676,0.96,16
190340449,1,"Race IAT","congruent","ratings first","female",28,4,-0.175,682,0.91,FALSE,0.925,0.111,2.66,-0.109,665,0.91,21
204542560,8,"Flowers-Insects IAT","incongruent","SCIAT first","male",42,4,0.625,678,0.93,FALSE,0.975,0.025,3.92,0,579,0.98,18
207614447,7,"Flowers-Insects IAT","congruent","SCIAT first","male",27,5,0.215,611,0.6,TRUE,0.946,0.079,3.019,-0.097,673,0.93,16
218817820,4,"Race IAT","incongruent","SCIAT first","female",38,4.83,0.812,701,0.96,FALSE,0.923,0.026,3.375,0.262,625,0.95,20
224925624,8,"Flowers-Insects IAT","incongruent","SCIAT first","male",23,4,0.77,692,0.98,FALSE,0.925,0.079,2.852,-0.014,579,0.92,17
233943787,3,"Race IAT","congruent","SCIAT first","male ",38,5,0.194,901,0.88,FALSE,0.903,0.226,2.053,-0.274,693,0.84,15
234271855,7,"Flowers-Insects IAT","congruent","SCIAT first","female",37,1.67,1.094,855,0.95,FALSE,0.946,0.139,2.692,-0.261,660,0.9,18
238431888,8,"Flowers-Insects IAT","incongruent","SCIAT first","female",40,4.5,1.252,1111,0.92,FALSE,0.909,0.281,1.914,-0.378,669,0.82,21
242700581,5,"Flowers-Insects IAT","congruent","ratings first","male",60,3.5,0.452,1108,1,FALSE,0.914,0.083,2.751,0.008,640,0.92,21
244572713,1,"Race IAT","congruent","ratings first","female",26,7,-0.238,763,0.98,FALSE,0.994,0.079,3.91,-0.543,610,0.96,19
253556644,4,"Race IAT","incongruent","SCIAT first","male",21,3.67,0.551,753,0.98,FALSE,0.949,0.053,3.252,-0.006,609,0.95,21
255323643,3,"Race IAT","congruent","SCIAT first","male",44,4,0.691,923,0.98,FALSE,0.882,0.108,2.423,0.025,627,0.89,16
255740741,5,"Flowers-Insects IAT","congruent","ratings first","female",29,1.83,0.752,750,0.98,FALSE,0.95,0.006,4.143,0.426,649,0.97,12
258125975,7,"Flowers-Insects IAT","congruent","SCIAT first","male",21,4.17,0.417,625,0.89,FALSE,0.974,0.051,3.582,-0.158,599,0.96,18
259778364,4,"Race IAT","incongruent","SCIAT first","male",20,3.83,0.825,816,0.94,FALSE,0.974,0.028,3.852,-0.012,620,0.97,14
260570330,2,"Race IAT","incongruent","ratings first","female",30,5,0.302,753,0.92,FALSE,0.971,0.2,2.744,-0.53,610,0.89,19
263450431,7,"Flowers-Insects IAT","congruent","SCIAT first","male",18,3,0.336,608,0.93,FALSE,0.842,0.025,2.963,0.478,620,0.91,22
265685730,2,"Race IAT","incongruent","ratings first","male",41,4,0.377,869,0.96,FALSE,0.974,0.025,3.909,0.005,622,0.97,21
270308740,4,"Race IAT","incongruent","SCIAT first","male",29,4.17,0.945,827,0.88,FALSE,0.821,0.075,2.357,0.261,562,0.87,14
270327266,2,"Race IAT","incongruent","ratings first","female",21,4.5,-0.251,670,0.98,FALSE,0.875,0.025,3.11,0.405,616,0.92,18
274582324,4,"Race IAT","incongruent","SCIAT first","female",34,4.5,0.264,768,0.98,FALSE,0.949,0.051,3.265,0,607,0.95,15
281711400,8,"Flowers-Insects IAT","incongruent","SCIAT first","male",26,4,0.279,847,0.98,FALSE,0.949,0.054,3.239,-0.013,649,0.95,19
287391307,3,"Race IAT","congruent","SCIAT first","non-binary",24,5.17,-0.08,1003,0.93,FALSE,0.994,0.051,4.13,-0.433,614,0.97,11
291388118,6,"Flowers-Insects IAT","incongruent","ratings first","male",22,4.83,0.752,903,0.86,FALSE,0.912,0.152,2.382,-0.161,692,0.88,14
294127425,1,"Race IAT","congruent","ratings first","male",40,4,0.711,1081,0.93,FALSE,0.85,0.382,1.336,-0.369,543,0.74,18
295372062,6,"Flowers-Insects IAT","incongruent","ratings first","male",27,4,0.149,606,0.98,FALSE,0.949,0.051,3.265,0,623,0.95,17
301560772,4,"Race IAT","incongruent","SCIAT first","male",26,5,0.202,848,0.9,FALSE,0.833,0.147,2.017,0.041,648,0.84,16
305219912,8,"Flowers-Insects IAT","incongruent","SCIAT first","male",54,3,0.797,869,0.98,FALSE,0.895,0.079,2.664,0.08,682,0.91,26
319349222,6,"Flowers-Insects IAT","incongruent","ratings first","male",19,4.83,0.012,744,0.96,FALSE,0.75,0.1,1.956,0.304,561,0.82,19
325320975,7,"Flowers-Insects IAT","congruent","SCIAT first","male",45,5,0.923,983,0.97,FALSE,0.889,0.006,3.718,0.639,662,0.95,17
332786361,1,"Race IAT","congruent","ratings first","female",51,4.83,0.453,1034,0.82,FALSE,0.576,0.257,0.843,0.231,617,0.66,19
334748437,5,"Flowers-Insects IAT","congruent","ratings first","male",27,4.5,0.756,701,0.87,FALSE,0.95,0.025,3.605,0.158,564,0.96,13
337995878,6,"Flowers-Insects IAT","incongruent","ratings first","female ",28,3.67,1.095,770,0.92,FALSE,0.872,0.103,2.402,0.066,629,0.88,15
339116986,2,"Race IAT","incongruent","ratings first","male",21,7,0.733,860,0.88,FALSE,0.667,0.107,1.673,0.406,683,0.77,25
341249261,5,"Flowers-Insects IAT","congruent","ratings first","male",21,3.5,0.793,917,0.85,FALSE,0.895,0.176,2.181,-0.162,640,0.86,21
348708304,8,"Flowers-Insects IAT","incongruent","SCIAT first","female",33,4.67,0.135,665,0.91,FALSE,0.9,0.006,3.779,0.608,650,0.95,12
353484657,1,"Race IAT","congruent","ratings first","female",26,4,0.606,782,0.82,FALSE,0.541,0.222,0.867,0.331,586,0.66,20
354050540,4,"Race IAT","incongruent","SCIAT first","female",41,6,0.102,1070,0.97,FALSE,0.947,0.135,2.722,-0.259,650,0.91,25
363223603,3,"Race IAT","congruent","SCIAT first","female",25,6.17,0.834,800,0.97,FALSE,0.95,0.125,2.795,-0.247,592,0.91,13
363524221,5,"Flowers-Insects IAT","congruent","ratings first","female",62,6,0.813,944,0.95,FALSE,0.853,0.161,2.038,-0.03,668,0.85,16
365107000,8,"Flowers-Insects IAT","incongruent","SCIAT first","male",27,4.67,0.637,759,0.92,FALSE,0.966,0.069,3.302,-0.168,592,0.95,22
365496626,2,"Race IAT","incongruent","ratings first","female",26,4,0.913,851,0.91,FALSE,0.949,0.053,3.252,-0.006,597,0.95,15
366442872,8,"Flowers-Insects IAT","incongruent","SCIAT first","female",33,5.5,0.487,734,0.96,FALSE,0.974,0.051,3.582,-0.158,629,0.96,11
375081299,3,"Race IAT","congruent","SCIAT first","female",61,3.5,0.811,951,0.98,FALSE,0.763,0.432,0.887,-0.273,529,0.67,21
384221432,8,"Flowers-Insects IAT","incongruent","SCIAT first","male",30,4,-0.47,1207,0.96,FALSE,0.917,0.212,2.182,-0.292,647,0.86,18
384363251,3,"Race IAT","congruent","SCIAT first","female",46,4,0.455,906,1,FALSE,0.946,0.028,3.521,0.154,631,0.96,14
386246848,8,"Flowers-Insects IAT","incongruent","SCIAT first","male",32,4.5,0.229,1009,0.94,FALSE,0.75,0.179,1.592,0.121,585,0.78,14
387423690,2,"Race IAT","incongruent","ratings first","female",56,4,0.939,816,0.98,FALSE,0.833,0.162,1.953,0.009,661,0.84,14
396485092,4,"Race IAT","incongruent","SCIAT first","female",35,5.5,0.487,747,1,FALSE,0.895,0.081,2.65,0.073,660,0.91,14
398489489,1,"Race IAT","congruent","ratings first","female",32,4,0.125,801,0.98,FALSE,0.865,0.028,3.017,0.406,673,0.92,15
402124967,7,"Flowers-Insects IAT","congruent","SCIAT first","male",40,4,0.296,754,0.98,FALSE,0.923,0.125,2.576,-0.138,567,0.9,17
405880925,5,"Flowers-Insects IAT","congruent","ratings first","male",43,4,1.187,1174,0.99,FALSE,NA,NA,NA,NA,NA,NA,18
408203981,5,"Flowers-Insects IAT","congruent","ratings first","female",35,3.83,1.178,974,0.97,FALSE,0.923,0.211,2.231,-0.311,642,0.86,14
410213985,1,"Race IAT","congruent","ratings first","female",36,4.67,0.308,731,0.86,FALSE,0.833,0.184,1.867,-0.034,636,0.82,13
423007866,2,"Race IAT","incongruent","ratings first","female",34,5,1.048,771,0.91,FALSE,0.923,0.083,2.809,-0.022,627,0.92,11
431925768,8,"Flowers-Insects IAT","incongruent","SCIAT first","male",28,4,0.435,974,0.98,FALSE,0.971,0.028,3.817,0.006,624,0.97,19
432053156,4,"Race IAT","incongruent","SCIAT first","male",49,4.83,0.733,865,0.96,FALSE,0.946,0.056,3.2,-0.007,634,0.95,20
438898549,5,"Flowers-Insects IAT","congruent","ratings first","male",39,4,-0.521,937,0.99,FALSE,0.994,0.025,4.458,-0.269,666,0.99,27
445085567,7,"Flowers-Insects IAT","congruent","SCIAT first","female",23,4,0.402,659,0.92,FALSE,0.949,0.026,3.57,0.153,603,0.96,14
445394746,2,"Race IAT","incongruent","ratings first","female",21,3.83,0.017,1217,0.93,FALSE,0.84,0.13,2.119,0.065,678,0.85,16
445794281,1,"Race IAT","congruent","ratings first","male",38,3,0.666,1266,0.97,FALSE,0.879,0.152,2.199,-0.069,643,0.86,21
451169438,6,"Flowers-Insects IAT","incongruent","ratings first","male",23,4.5,0.489,573,0.86,FALSE,0.9,0.077,2.708,0.072,542,0.91,15
452792693,5,"Flowers-Insects IAT","congruent","ratings first","female",60,4.5,1.427,1054,0.92,FALSE,0.857,0.281,1.647,-0.244,616,0.79,21
461598033,1,"Race IAT","congruent","ratings first","female",54,7,0.269,916,0.98,FALSE,0.816,0.162,1.885,0.043,572,0.83,15
466244185,1,"Race IAT","congruent","ratings first","female",30,5,0.266,1159,0.98,FALSE,0.946,0.077,3.033,-0.09,663,0.93,19
467903513,1,"Race IAT","congruent","ratings first","female",29,4,0.163,709,0.97,FALSE,0.917,0.029,3.285,0.26,626,0.94,17
468462502,6,"Flowers-Insects IAT","incongruent","ratings first","female",32,4,0.906,586,0.91,FALSE,0.946,0.053,3.227,0.007,610,0.95,22
470431742,6,"Flowers-Insects IAT","incongruent","ratings first","male",53,4,-0.172,825,0.95,FALSE,0.923,0.132,2.545,-0.154,630,0.9,22
471007684,4,"Race IAT","incongruent","SCIAT first","female",31,4,0.878,771,0.98,FALSE,0.923,0.053,3.046,0.097,659,0.94,15
472641427,3,"Race IAT","congruent","SCIAT first","male",40,5.67,0.337,1517,0.83,FALSE,0.324,0.389,-0.173,0.369,114,0.47,29
479384312,8,"Flowers-Insects IAT","incongruent","SCIAT first","female",19,3.83,0.365,808,0.91,FALSE,0.861,0.162,2.071,-0.05,626,0.85,19
480358378,2,"Race IAT","incongruent","ratings first","female",51,6,0.637,820,0.98,FALSE,0.875,0.111,2.371,0.035,649,0.88,14
485218603,3,"Race IAT","congruent","SCIAT first","male",36,6,0.042,1226,0.91,FALSE,0.897,0.054,2.874,0.17,632,0.92,20
486506647,7,"Flowers-Insects IAT","congruent","SCIAT first","female",32,4.67,-0.186,872,0.96,FALSE,0.974,0.205,2.761,-0.557,587,0.88,15
514888056,8,"Flowers-Insects IAT","incongruent","SCIAT first","female",21,4,0.613,727,0.9,FALSE,0.842,0.108,2.24,0.117,634,0.87,19
515521577,1,"Race IAT","congruent","ratings first","female",24,3.83,0.03,872,0.98,FALSE,0.675,0.1,1.735,0.414,530,0.79,15
517726855,7,"Flowers-Insects IAT","congruent","SCIAT first","male",26,4.5,0.013,757,0.9,FALSE,0.857,0.2,1.909,-0.113,646,0.83,23
519817233,1,"Race IAT","congruent","ratings first","male",37,4,0.186,602,0.96,FALSE,0.95,0.051,3.277,-0.006,572,0.95,13
521731217,1,"Race IAT","congruent","ratings first","male",29,5,0.343,1280,1,FALSE,0.974,0.006,4.447,0.274,642,0.99,18
525408622,6,"Flowers-Insects IAT","incongruent","ratings first","male",48,4,1.209,841,0.96,FALSE,0.974,0.029,3.827,-0.024,657,0.97,16
535315539,3,"Race IAT","congruent","SCIAT first","female",54,4.33,0.154,773,0.92,FALSE,0.875,0.243,1.846,-0.227,671,0.82,13
539375907,3,"Race IAT","congruent","SCIAT first","male",24,4.17,0.55,534,0.83,FALSE,0.975,0.079,3.372,-0.274,603,0.95,24
540105130,2,"Race IAT","incongruent","ratings first","male",23,3.83,0.776,812,0.95,FALSE,0.974,0.006,4.447,0.274,633,0.99,21
542218727,7,"Flowers-Insects IAT","congruent","SCIAT first","female",54,3.33,0.909,908,1,FALSE,0.895,0.133,2.363,-0.071,632,0.88,15
549996272,8,"Flowers-Insects IAT","incongruent","SCIAT first","female ",47,4,1.181,757,0.87,FALSE,0.737,0.176,1.563,0.148,664,0.78,19
550467416,8,"Flowers-Insects IAT","incongruent","SCIAT first","female",47,5,0.859,985,0.94,FALSE,0.795,0.135,1.926,0.139,635,0.83,14
561545994,2,"Race IAT","incongruent","ratings first","male",35,4.33,0.501,812,0.92,FALSE,0.969,0.043,3.574,-0.076,746,0.96,15
561714654,6,"Flowers-Insects IAT","incongruent","ratings first","female",59,4.17,0.939,1139,0.96,FALSE,0.892,0.206,2.057,-0.208,637,0.85,14
563072740,4,"Race IAT","incongruent","SCIAT first","female",33,4,-0.034,939,0.98,FALSE,0.872,0.026,3.084,0.407,642,0.92,20
563438230,6,"Flowers-Insects IAT","incongruent","ratings first","female",30,4,0.157,618,0.87,FALSE,0.872,0.025,3.095,0.413,580,0.92,22
563591600,8,"Flowers-Insects IAT","incongruent","SCIAT first","female",33,4,0.733,776,0.86,FALSE,0.994,0.051,4.13,-0.433,626,0.97,16
569594414,6,"Flowers-Insects IAT","incongruent","ratings first","female",39,5.17,-0.112,946,0.94,FALSE,0.973,0.026,3.864,0.006,640,0.97,11
573871758,6,"Flowers-Insects IAT","incongruent","ratings first","female",45,4,0.254,641,0.98,FALSE,0.9,0.135,2.384,-0.09,616,0.88,17
575082229,5,"Flowers-Insects IAT","congruent","ratings first","female",42,5.5,1.249,716,0.93,FALSE,0.441,0.206,0.673,0.484,716,0.62,15
582207697,1,"Race IAT","congruent","ratings first","female",30,5.5,0.401,770,0.94,FALSE,0.872,0.026,3.084,0.407,628,0.92,15
583883014,6,"Flowers-Insects IAT","incongruent","ratings first","male",32,4,0.238,917,0.99,FALSE,0.974,0.028,3.864,-0.017,643,0.97,28
584437081,1,"Race IAT","congruent","ratings first","male",34,4,-0.303,907,0.88,FALSE,0.919,0.029,3.3,0.252,699,0.94,21
593643129,1,"Race IAT","congruent","ratings first","female",51,4.67,0.784,843,1,FALSE,0.824,0.179,1.85,-0.004,632,0.82,13
599385267,3,"Race IAT","congruent","SCIAT first","male",20,5.33,0.149,1229,0.92,FALSE,0.906,0.08,2.723,0.044,743,0.91,15
599651811,3,"Race IAT","congruent","SCIAT first","female",39,4,0.802,749,0.9,FALSE,0.895,0.421,1.451,-0.526,555,0.74,18
605606673,1,"Race IAT","congruent","ratings first","female",27,4.33,0.639,925,0.94,FALSE,0.949,0.026,3.582,0.158,665,0.96,18
605886233,1,"Race IAT","congruent","ratings first","female",55,4.17,0.414,766,0.94,FALSE,0.975,0.027,3.886,-0.017,654,0.97,15
609200910,6,"Flowers-Insects IAT","incongruent","ratings first","male",21,3.83,0.299,896,0.98,FALSE,0.974,0.027,3.876,-0.011,638,0.97,18
610168744,8,"Flowers-Insects IAT","incongruent","SCIAT first","male",28,5,0.432,717,1,FALSE,0.95,0.075,3.084,-0.103,582,0.94,17
613796132,4,"Race IAT","incongruent","SCIAT first","female",31,4,0.436,1286,0.82,FALSE,0.862,0.577,0.896,-0.642,636,0.65,19
614502488,8,"Flowers-Insects IAT","incongruent","SCIAT first","female",42,4,0.817,995,0.86,FALSE,0.8,0.189,1.723,0.02,621,0.81,20
619115057,1,"Race IAT","congruent","ratings first","female",26,5.33,0.299,938,0.93,FALSE,0.875,0.077,2.576,0.138,625,0.9,16
620965256,8,"Flowers-Insects IAT","incongruent","SCIAT first","male",44,4.33,0.512,776,0.97,FALSE,0.974,0.053,3.569,-0.165,657,0.96,15
632173056,8,"Flowers-Insects IAT","incongruent","SCIAT first","female",19,4.33,0.573,909,0.92,FALSE,0.684,0.075,1.919,0.48,539,0.81,11
641206241,1,"Race IAT","congruent","ratings first","female",24,4.17,0.522,668,0.93,FALSE,0.949,0.256,2.287,-0.489,586,0.85,15
641734445,5,"Flowers-Insects IAT","congruent","ratings first","female",20,7,-0.024,226,0.5,TRUE,0.919,0.083,2.781,-0.007,631,0.92,28
644775899,3,"Race IAT","congruent","SCIAT first","female",39,4,0.785,776,0.89,FALSE,0.923,0.243,2.122,-0.365,576,0.84,19
647554123,3,"Race IAT","congruent","SCIAT first","female",37,6.17,0.025,1101,0.97,FALSE,0.974,0.081,3.347,-0.276,656,0.95,16
649334898,2,"Race IAT","incongruent","ratings first","male",48,4,0.141,1634,0.96,FALSE,0.921,0.139,2.498,-0.163,634,0.89,13
654331958,6,"Flowers-Insects IAT","incongruent","ratings first","female",35,3.67,0.087,730,0.84,FALSE,0.778,0.231,1.501,-0.014,633,0.77,24
657593060,4,"Race IAT","incongruent","SCIAT first","male",40,6,0.627,926,0.9,FALSE,0.974,0.051,3.57,-0.153,600,0.96,15
657636043,3,"Race IAT","congruent","SCIAT first","female",31,5,0.073,926,0.97,FALSE,0.868,0.029,3.021,0.392,639,0.92,13
664316323,3,"Race IAT","congruent","SCIAT first","female",32,4,1.004,826,0.93,FALSE,0.75,0.25,1.349,0,563,0.75,18
666581979,3,"Race IAT","congruent","SCIAT first","female",25,4,0.48,701,0.94,FALSE,0.923,0.05,3.071,0.109,622,0.94,22
667960884,4,"Race IAT","incongruent","SCIAT first","male",34,4.83,0.191,1069,0.98,FALSE,0.882,0.056,2.78,0.203,704,0.91,15
675058712,8,"Flowers-Insects IAT","incongruent","SCIAT first","female",54,4.17,0.902,1248,0.93,FALSE,0.821,0.2,1.759,-0.038,612,0.81,15
677718263,7,"Flowers-Insects IAT","congruent","SCIAT first","male",52,4,0.524,758,0.9,FALSE,0.718,0.179,1.494,0.17,614,0.77,13
678393096,8,"Flowers-Insects IAT","incongruent","SCIAT first","female",32,4.17,0.237,572,0.85,FALSE,0.846,0.051,2.653,0.306,559,0.9,15
681508303,7,"Flowers-Insects IAT","congruent","SCIAT first","male",30,4.33,1.077,710,0.97,FALSE,0.994,0.006,4.995,0,644,1,24
682937112,8,"Flowers-Insects IAT","incongruent","SCIAT first","female",30,4.5,0.515,923,0.77,FALSE,0.632,0.615,0.043,-0.315,455,0.51,15
683057198,6,"Flowers-Insects IAT","incongruent","ratings first","female",38,4,0.938,1150,0.97,FALSE,0.795,0.387,1.11,-0.268,659,0.71,13
688207919,7,"Flowers-Insects IAT","congruent","SCIAT first","female",53,4.83,0.836,927,0.96,FALSE,0.844,0.103,2.272,0.126,697,0.87,12
693171305,1,"Race IAT","congruent","ratings first","female",26,4,0.935,720,0.97,FALSE,0.925,0.158,2.443,-0.218,579,0.88,17
693366393,1,"Race IAT","congruent","ratings first","female",30,3.83,-0.275,142,0.48,TRUE,0.739,0.591,0.411,-0.435,193,0.58,15
700011012,4,"Race IAT","incongruent","SCIAT first","male",53,5,0.379,1059,0.95,FALSE,0.875,0.056,2.744,0.221,619,0.91,19
703624742,6,"Flowers-Insects IAT","incongruent","ratings first","female",33,6,0.7,868,0.99,FALSE,0.921,0.028,3.327,0.251,641,0.95,10
713936658,2,"Race IAT","incongruent","ratings first","female",65,4,0.443,1769,0.98,FALSE,0.778,0.381,1.068,-0.231,677,0.71,17
717194360,8,"Flowers-Insects IAT","incongruent","SCIAT first","female",50,3.33,0.606,946,0.89,FALSE,0.69,0.63,0.164,-0.413,599,0.54,22
721300289,1,"Race IAT","congruent","ratings first","male",19,4.5,0.299,852,0.88,FALSE,0.994,0.027,4.424,-0.286,660,0.99,22
726661040,8,"Flowers-Insects IAT","incongruent","SCIAT first","female",50,4.67,0.534,1180,0.99,FALSE,0.947,0.128,2.755,-0.242,648,0.91,17
728685931,3,"Race IAT","congruent","SCIAT first","male",47,4.67,0.124,900,0.99,FALSE,0.947,0.026,3.569,0.165,659,0.96,19
730072246,6,"Flowers-Insects IAT","incongruent","ratings first","male",21,2.83,0.184,536,0.74,TRUE,0.788,0.231,1.535,-0.031,673,0.78,20
732621860,4,"Race IAT","incongruent","SCIAT first","female",30,4,0.524,1073,0.92,FALSE,0.897,0.114,2.471,-0.032,653,0.89,15
738315478,6,"Flowers-Insects IAT","incongruent","ratings first","female",35,4,1.007,1009,0.96,FALSE,0.895,0.053,2.872,0.184,647,0.92,12
739994208,8,"Flowers-Insects IAT","incongruent","SCIAT first","female",28,4.17,0.99,905,0.98,FALSE,0.923,0.051,3.059,0.103,568,0.94,16
742227168,8,"Flowers-Insects IAT","incongruent","SCIAT first","male",21,4,0.779,758,0.96,FALSE,0.872,0.025,3.095,0.413,579,0.92,21
747800991,7,"Flowers-Insects IAT","congruent","SCIAT first","female",39,5,1.291,932,0.95,FALSE,0.925,0.105,2.692,-0.094,591,0.91,14
747839560,8,"Flowers-Insects IAT","incongruent","SCIAT first","male",30,4,0.888,937,0.95,FALSE,0.925,0.026,3.377,0.249,637,0.95,16
748063977,1,"Race IAT","congruent","ratings first","female",48,5,0.541,680,0.95,FALSE,0.949,0.054,3.239,-0.013,631,0.95,19
749368071,7,"Flowers-Insects IAT","congruent","SCIAT first","female",41,4,1.18,941,0.96,FALSE,0.9,0.006,3.779,0.608,642,0.95,17
755258994,2,"Race IAT","incongruent","ratings first","female",28,4.5,0.538,825,0.98,FALSE,0.949,0.006,4.13,0.433,670,0.97,16
761338203,3,"Race IAT","congruent","SCIAT first","female",33,6,0.758,764,0.96,FALSE,0.825,0.128,2.07,0.1,634,0.85,20
770578037,5,"Flowers-Insects IAT","congruent","ratings first","female",31,4,0.744,940,0.93,FALSE,0.816,0.135,2.002,0.102,653,0.84,13
772374929,1,"Race IAT","congruent","ratings first","53",53,4,0.563,809,0.97,FALSE,0.973,0.121,3.095,-0.379,652,0.93,18
781128104,8,"Flowers-Insects IAT","incongruent","SCIAT first","female",22,4.5,1.17,1003,0.86,FALSE,0.75,0.412,0.897,-0.226,628,0.67,15
787704087,7,"Flowers-Insects IAT","congruent","SCIAT first","male",46,6.17,0.918,806,0.94,FALSE,0.949,0.158,2.636,-0.315,601,0.9,11
792204798,6,"Flowers-Insects IAT","incongruent","ratings first","female",31,3.67,0.98,643,0.92,FALSE,0.895,0.075,2.692,0.094,634,0.91,14
811663184,8,"Flowers-Insects IAT","incongruent","SCIAT first","female",30,5.33,0.515,581,0.97,FALSE,0.949,0.053,3.252,-0.006,639,0.95,15
817704898,2,"Race IAT","incongruent","ratings first","female",50,4.83,0.412,791,0.98,FALSE,0.526,0.447,0.198,0.033,427,0.54,15
819540299,3,"Race IAT","congruent","SCIAT first","male",35,7,0.385,1084,0.95,FALSE,0.816,0.286,1.465,-0.167,679,0.77,13
827785702,6,"Flowers-Insects IAT","incongruent","ratings first","female",24,4,1.08,711,0.98,FALSE,0.975,0.006,4.458,0.269,631,0.99,17
832682047,7,"Flowers-Insects IAT","congruent","SCIAT first","female",30,3,0.158,781,0.98,FALSE,0.784,0.205,1.608,0.019,592,0.79,15
833121121,1,"Race IAT","congruent","ratings first","female",28,4.67,0.822,756,0.98,FALSE,0.949,0.056,3.226,-0.02,631,0.95,18
837260989,5,"Flowers-Insects IAT","congruent","ratings first","female",31,4,0.963,662,0.93,FALSE,0.825,0.237,1.651,-0.109,545,0.79,22
842849993,1,"Race IAT","congruent","ratings first","female",47,4,0.19,1013,1,FALSE,0.875,0.333,1.581,-0.36,612,0.77,16
850004642,2,"Race IAT","incongruent","ratings first","female",35,4.17,0.21,883,0.98,FALSE,0.974,0.081,3.336,-0.27,635,0.95,13
852697087,7,"Flowers-Insects IAT","congruent","SCIAT first","male",35,4.17,0.768,706,0.94,FALSE,0.949,0.05,3.277,0.006,628,0.95,13
854086011,3,"Race IAT","congruent","SCIAT first","female",29,4.33,-0.585,787,0.93,FALSE,0.795,0.088,2.175,0.264,665,0.85,16
855686521,1,"Race IAT","congruent","ratings first","female",31,4.17,0.203,886,0.91,FALSE,0.943,0.083,2.962,-0.098,696,0.93,18
857298266,2,"Race IAT","incongruent","ratings first","male",39,4,0.529,938,0.93,FALSE,0.006,0.006,0,2.498,390,0.75,18
862429627,3,"Race IAT","congruent","SCIAT first","male",61,4,0.607,1152,0.98,FALSE,0.8,0.053,2.461,0.389,656,0.87,20
862519812,4,"Race IAT","incongruent","SCIAT first","female",20,4,0.523,772,0.93,FALSE,0.9,0.026,3.231,0.334,648,0.94,16
862861193,1,"Race IAT","congruent","ratings first","female",50,4.83,0.645,777,0.96,FALSE,0.821,0.154,1.937,0.051,588,0.83,11
867948927,7,"Flowers-Insects IAT","congruent","SCIAT first","female",48,6,1.172,882,0.97,FALSE,0.974,0.057,3.517,-0.179,665,0.96,15
868001054,6,"Flowers-Insects IAT","incongruent","ratings first","female",22,4.17,0.964,794,0.75,FALSE,0.923,0.026,3.375,0.262,635,0.95,15
884258753,1,"Race IAT","congruent","ratings first","31",31,6,0.811,1197,0.85,FALSE,0.943,0.176,2.508,-0.325,712,0.88,10
896106144,8,"Flowers-Insects IAT","incongruent","SCIAT first","female",32,1,0.518,773,0.83,FALSE,0.9,0.128,2.416,-0.073,599,0.89,23
896250499,3,"Race IAT","congruent","SCIAT first","female",42,4,0.426,926,0.98,FALSE,0.789,0.184,1.704,0.047,562,0.8,18
900241257,1,"Race IAT","congruent","ratings first","female",24,4,0.741,1000,0.96,FALSE,0.765,0.179,1.642,0.1,663,0.79,11
906784166,6,"Flowers-Insects IAT","incongruent","ratings first","female",47,4,1.061,799,0.97,FALSE,0.744,0.054,2.261,0.476,662,0.84,15
909556138,2,"Race IAT","incongruent","ratings first","female",39,4.33,0.694,685,0.98,FALSE,0.975,0.026,3.909,-0.005,630,0.97,18
915306710,6,"Flowers-Insects IAT","incongruent","ratings first","female",29,4,1.169,916,1,FALSE,0.974,0.025,3.898,0.011,618,0.97,15
935323645,5,"Flowers-Insects IAT","congruent","ratings first","female",NA,4.33,1.1,898,0.93,FALSE,0.649,0.364,0.73,-0.016,502,0.64,14
937860201,1,"Race IAT","congruent","ratings first","female",20,6,-0.233,731,0.98,FALSE,0.925,0.103,2.707,-0.086,639,0.91,12
942206850,2,"Race IAT","incongruent","ratings first","female",45,6,0.238,1284,0.88,FALSE,0.923,0.054,3.033,0.09,674,0.93,23
942657512,8,"Flowers-Insects IAT","incongruent","SCIAT first","female",22,3.67,0.825,756,0.87,FALSE,0.897,0.051,2.9,0.183,608,0.92,17
942733821,5,"Flowers-Insects IAT","congruent","ratings first","male",23,3.5,-0.476,261,0.53,TRUE,0.923,0.053,3.046,0.097,615,0.94,19
944683843,3,"Race IAT","congruent","SCIAT first","female",27,3.5,0.04,687,0.88,FALSE,0.975,0.051,3.593,-0.164,627,0.96,18
954456004,4,"Race IAT","incongruent","SCIAT first","female",35,4,0.179,784,0.92,FALSE,0.714,0.152,1.596,0.232,627,0.78,12
955145745,1,"Race IAT","congruent","ratings first","male",59,5.33,0.199,1054,0.99,FALSE,0.973,0.125,3.077,-0.388,659,0.93,17
956843913,1,"Race IAT","congruent","ratings first","female",58,5,0.296,966,0.98,FALSE,0.943,0.033,3.413,0.127,748,0.95,17
957598724,4,"Race IAT","incongruent","SCIAT first","male",53,4.67,0.197,797,0.99,FALSE,0.974,0.006,4.436,0.28,670,0.99,18
959977279,7,"Flowers-Insects IAT","congruent","SCIAT first","female",26,4,1.257,784,0.84,FALSE,0.897,0.051,2.9,0.183,593,0.92,20
962627857,1,"Race IAT","congruent","ratings first","female",40,5,0.664,821,0.98,FALSE,0.944,0.081,2.991,-0.098,621,0.93,21
962810244,4,"Race IAT","incongruent","SCIAT first","female",38,4,-0.217,767,0.91,FALSE,0.917,0.027,3.309,0.272,671,0.95,17
966998928,8,"Flowers-Insects IAT","incongruent","SCIAT first","male",19,4,0.952,778,0.97,FALSE,0.949,0.077,3.059,-0.103,612,0.94,16
971096856,8,"Flowers-Insects IAT","incongruent","SCIAT first","female",43,4.17,1.03,819,0.95,FALSE,0.821,0.029,2.807,0.486,649,0.89,12
982397589,5,"Flowers-Insects IAT","congruent","ratings first","male",50,4,0.26,818,0.99,FALSE,0.875,0.222,1.915,-0.193,630,0.83,23
983422513,1,"Race IAT","congruent","ratings first","male",30,4.67,0.14,950,0.92,FALSE,0.95,0.077,3.071,-0.109,628,0.94,21
983434691,3,"Race IAT","congruent","SCIAT first","female",32,4,-0.299,805,0.97,FALSE,0.9,0.211,2.086,-0.238,562,0.85,17
986250624,8,"Flowers-Insects IAT","incongruent","SCIAT first","male",53,3.33,0.851,861,0.98,FALSE,0.917,0.081,2.781,0.007,665,0.92,19
986991006,6,"Flowers-Insects IAT","incongruent","ratings first","male",54,4,0.681,1536,0.98,FALSE,0.846,0.079,2.432,0.196,642,0.88,19
991310004,4,"Race IAT","incongruent","SCIAT first","female",34,4,0.813,724,0.89,FALSE,0.921,0.077,2.838,0.007,627,0.92,13
992967929,1,"Race IAT","congruent","ratings first","female",41,5,-0.095,821,0.97,FALSE,0.825,0.184,1.834,-0.018,597,0.82,15
995011576,8,"Flowers-Insects IAT","incongruent","SCIAT first","female",31,6,0.848,671,0.98,FALSE,0.925,0.025,3.399,0.26,587,0.95,19
